# Results on Thu, 27 Mar 2025 21:56:08 GMT
# USER AGENT: Mozilla/5.0 (Macintosh; Intel Mac OS X 10.15; rv:136.0) Gecko/20100101 Firefox/136.0
# Design number was non-random = 1
#
# Columns below this comment are as follows:
# 1. Results reception time.
# 2. MD5 hash of participant's IP address.
# 3. Controller name.
# 4. Order number of item.
# 5. Inner element number.
# 6. Label.
# 7. Latin Square Group.
# 8. PennElementType.
# 9. PennElementName.
# 10. Parameter.
# 11. Value.
# 12. EventTime.
# 13. ID.
# 14. Comments.
1743112568,6dffa5b13bbc885d12b84693177ae2f3,PennController,0,0,welcome,NULL,PennController,0,_Trial_,Start,1743112532424,ID,NULL
1743112568,6dffa5b13bbc885d12b84693177ae2f3,PennController,0,0,welcome,NULL,PennController,0,_Header_,Start,1743112532424,ID,NULL
1743112568,6dffa5b13bbc885d12b84693177ae2f3,PennController,0,0,welcome,NULL,PennController,0,_Header_,End,1743112532427,ID,NULL
1743112568,6dffa5b13bbc885d12b84693177ae2f3,PennController,0,0,welcome,NULL,PennController,0,_Trial_,End,1743112534829,ID,NULL
1743112568,6dffa5b13bbc885d12b84693177ae2f3,PennController,1,0,practice,NULL,PennController,1,_Trial_,Start,1743112534834,ID,NULL
1743112568,6dffa5b13bbc885d12b84693177ae2f3,PennController,1,0,practice,NULL,PennController,1,_Header_,Start,1743112534834,ID,NULL
1743112568,6dffa5b13bbc885d12b84693177ae2f3,PennController,1,0,practice,NULL,PennController,1,_Header_,End,1743112534835,ID,NULL
1743112568,6dffa5b13bbc885d12b84693177ae2f3,PennController,1,0,practice,NULL,PennController,1,_Trial_,End,1743112537937,ID,NULL
# 14. Group.
# 15. Condition.
# 16. Expected.
# 17. PrimeType.
# 18. PrimeWord.
# 19. TargetWord.
# 20. Comments.
1743112568,6dffa5b13bbc885d12b84693177ae2f3,PennController,13,0,test,NULL,PennController,14,_Trial_,Start,1743112537942,ID,B,word,j,related,problem,SOLVE,NULL
1743112568,6dffa5b13bbc885d12b84693177ae2f3,PennController,13,0,test,NULL,PennController,14,_Header_,Start,1743112537942,ID,B,word,j,related,problem,SOLVE,NULL
1743112568,6dffa5b13bbc885d12b84693177ae2f3,PennController,13,0,test,NULL,PennController,14,_Header_,End,1743112537944,ID,B,word,j,related,problem,SOLVE,NULL
1743112568,6dffa5b13bbc885d12b84693177ae2f3,PennController,13,0,test,NULL,Text,mask1,Print,NA,1743112537946,ID,B,word,j,related,problem,SOLVE,NULL
1743112568,6dffa5b13bbc885d12b84693177ae2f3,PennController,13,0,test,NULL,Timer,maskTimer1,Start,Start,1743112537946,ID,B,word,j,related,problem,SOLVE,NULL
1743112568,6dffa5b13bbc885d12b84693177ae2f3,PennController,13,0,test,NULL,Timer,maskTimer1,End,End,1743112538447,ID,B,word,j,related,problem,SOLVE,NULL
1743112568,6dffa5b13bbc885d12b84693177ae2f3,PennController,13,0,test,NULL,Text,prime,Print,NA,1743112538451,ID,B,word,j,related,problem,SOLVE,NULL
1743112568,6dffa5b13bbc885d12b84693177ae2f3,PennController,13,0,test,NULL,Timer,primeTimer,Start,Start,1743112538452,ID,B,word,j,related,problem,SOLVE,NULL
1743112568,6dffa5b13bbc885d12b84693177ae2f3,PennController,13,0,test,NULL,Timer,primeTimer,End,End,1743112538495,ID,B,word,j,related,problem,SOLVE,NULL
1743112568,6dffa5b13bbc885d12b84693177ae2f3,PennController,13,0,test,NULL,Text,mask2,Print,NA,1743112538498,ID,B,word,j,related,problem,SOLVE,NULL
1743112568,6dffa5b13bbc885d12b84693177ae2f3,PennController,13,0,test,NULL,Timer,maskTimer2,Start,Start,1743112538499,ID,B,word,j,related,problem,SOLVE,NULL
1743112568,6dffa5b13bbc885d12b84693177ae2f3,PennController,13,0,test,NULL,Timer,maskTimer2,End,End,1743112538599,ID,B,word,j,related,problem,SOLVE,NULL
1743112568,6dffa5b13bbc885d12b84693177ae2f3,PennController,13,0,test,NULL,Text,target,Print,NA,1743112538603,ID,B,word,j,related,problem,SOLVE,NULL
1743112568,6dffa5b13bbc885d12b84693177ae2f3,PennController,13,0,test,NULL,Key,answerTarget,PressedKey,F,1743112539625,ID,B,word,j,related,problem,SOLVE,Wait success
1743112568,6dffa5b13bbc885d12b84693177ae2f3,PennController,13,0,test,NULL,PennController,14,_Trial_,End,1743112539627,ID,B,word,j,related,problem,SOLVE,NULL
1743112568,6dffa5b13bbc885d12b84693177ae2f3,PennController,8,0,test,NULL,PennController,9,_Trial_,Start,1743112539630,ID,B,word,j,related,money,WEALTH,NULL
1743112568,6dffa5b13bbc885d12b84693177ae2f3,PennController,8,0,test,NULL,PennController,9,_Header_,Start,1743112539630,ID,B,word,j,related,money,WEALTH,NULL
1743112568,6dffa5b13bbc885d12b84693177ae2f3,PennController,8,0,test,NULL,PennController,9,_Header_,End,1743112539631,ID,B,word,j,related,money,WEALTH,NULL
1743112568,6dffa5b13bbc885d12b84693177ae2f3,PennController,8,0,test,NULL,Text,mask1,Print,NA,1743112539632,ID,B,word,j,related,money,WEALTH,NULL
1743112568,6dffa5b13bbc885d12b84693177ae2f3,PennController,8,0,test,NULL,Timer,maskTimer1,Start,Start,1743112539632,ID,B,word,j,related,money,WEALTH,NULL
1743112568,6dffa5b13bbc885d12b84693177ae2f3,PennController,8,0,test,NULL,Timer,maskTimer1,End,End,1743112540134,ID,B,word,j,related,money,WEALTH,NULL
1743112568,6dffa5b13bbc885d12b84693177ae2f3,PennController,8,0,test,NULL,Text,prime,Print,NA,1743112540137,ID,B,word,j,related,money,WEALTH,NULL
1743112568,6dffa5b13bbc885d12b84693177ae2f3,PennController,8,0,test,NULL,Timer,primeTimer,Start,Start,1743112540138,ID,B,word,j,related,money,WEALTH,NULL
1743112568,6dffa5b13bbc885d12b84693177ae2f3,PennController,8,0,test,NULL,Timer,primeTimer,End,End,1743112540182,ID,B,word,j,related,money,WEALTH,NULL
1743112568,6dffa5b13bbc885d12b84693177ae2f3,PennController,8,0,test,NULL,Text,mask2,Print,NA,1743112540185,ID,B,word,j,related,money,WEALTH,NULL
1743112568,6dffa5b13bbc885d12b84693177ae2f3,PennController,8,0,test,NULL,Timer,maskTimer2,Start,Start,1743112540186,ID,B,word,j,related,money,WEALTH,NULL
1743112568,6dffa5b13bbc885d12b84693177ae2f3,PennController,8,0,test,NULL,Timer,maskTimer2,End,End,1743112540286,ID,B,word,j,related,money,WEALTH,NULL
1743112568,6dffa5b13bbc885d12b84693177ae2f3,PennController,8,0,test,NULL,Text,target,Print,NA,1743112540289,ID,B,word,j,related,money,WEALTH,NULL
1743112568,6dffa5b13bbc885d12b84693177ae2f3,PennController,8,0,test,NULL,Key,answerTarget,PressedKey,F,1743112541128,ID,B,word,j,related,money,WEALTH,Wait success
1743112568,6dffa5b13bbc885d12b84693177ae2f3,PennController,8,0,test,NULL,PennController,9,_Trial_,End,1743112541130,ID,B,word,j,related,money,WEALTH,NULL
1743112568,6dffa5b13bbc885d12b84693177ae2f3,PennController,20,0,test,NULL,PennController,21,_Trial_,Start,1743112541133,ID,B,nonword,f,unrelated,clock,HELTH,NULL
1743112568,6dffa5b13bbc885d12b84693177ae2f3,PennController,20,0,test,NULL,PennController,21,_Header_,Start,1743112541133,ID,B,nonword,f,unrelated,clock,HELTH,NULL
1743112568,6dffa5b13bbc885d12b84693177ae2f3,PennController,20,0,test,NULL,PennController,21,_Header_,End,1743112541134,ID,B,nonword,f,unrelated,clock,HELTH,NULL
1743112568,6dffa5b13bbc885d12b84693177ae2f3,PennController,20,0,test,NULL,Text,mask1,Print,NA,1743112541136,ID,B,nonword,f,unrelated,clock,HELTH,NULL
1743112568,6dffa5b13bbc885d12b84693177ae2f3,PennController,20,0,test,NULL,Timer,maskTimer1,Start,Start,1743112541137,ID,B,nonword,f,unrelated,clock,HELTH,NULL
1743112568,6dffa5b13bbc885d12b84693177ae2f3,PennController,20,0,test,NULL,Timer,maskTimer1,End,End,1743112541638,ID,B,nonword,f,unrelated,clock,HELTH,NULL
1743112568,6dffa5b13bbc885d12b84693177ae2f3,PennController,20,0,test,NULL,Text,prime,Print,NA,1743112541640,ID,B,nonword,f,unrelated,clock,HELTH,NULL
1743112568,6dffa5b13bbc885d12b84693177ae2f3,PennController,20,0,test,NULL,Timer,primeTimer,Start,Start,1743112541641,ID,B,nonword,f,unrelated,clock,HELTH,NULL
1743112568,6dffa5b13bbc885d12b84693177ae2f3,PennController,20,0,test,NULL,Timer,primeTimer,End,End,1743112541687,ID,B,nonword,f,unrelated,clock,HELTH,NULL
1743112568,6dffa5b13bbc885d12b84693177ae2f3,PennController,20,0,test,NULL,Text,mask2,Print,NA,1743112541690,ID,B,nonword,f,unrelated,clock,HELTH,NULL
1743112568,6dffa5b13bbc885d12b84693177ae2f3,PennController,20,0,test,NULL,Timer,maskTimer2,Start,Start,1743112541692,ID,B,nonword,f,unrelated,clock,HELTH,NULL
1743112568,6dffa5b13bbc885d12b84693177ae2f3,PennController,20,0,test,NULL,Timer,maskTimer2,End,End,1743112541795,ID,B,nonword,f,unrelated,clock,HELTH,NULL
1743112568,6dffa5b13bbc885d12b84693177ae2f3,PennController,20,0,test,NULL,Text,target,Print,NA,1743112541797,ID,B,nonword,f,unrelated,clock,HELTH,NULL
1743112568,6dffa5b13bbc885d12b84693177ae2f3,PennController,20,0,test,NULL,Key,answerTarget,PressedKey,J,1743112542856,ID,B,nonword,f,unrelated,clock,HELTH,Wait success
1743112568,6dffa5b13bbc885d12b84693177ae2f3,PennController,20,0,test,NULL,PennController,21,_Trial_,End,1743112542858,ID,B,nonword,f,unrelated,clock,HELTH,NULL
1743112568,6dffa5b13bbc885d12b84693177ae2f3,PennController,16,0,test,NULL,PennController,17,_Trial_,Start,1743112542860,ID,B,nonword,f,unrelated,plant,SCRANT,NULL
1743112568,6dffa5b13bbc885d12b84693177ae2f3,PennController,16,0,test,NULL,PennController,17,_Header_,Start,1743112542860,ID,B,nonword,f,unrelated,plant,SCRANT,NULL
1743112568,6dffa5b13bbc885d12b84693177ae2f3,PennController,16,0,test,NULL,PennController,17,_Header_,End,1743112542861,ID,B,nonword,f,unrelated,plant,SCRANT,NULL
1743112568,6dffa5b13bbc885d12b84693177ae2f3,PennController,16,0,test,NULL,Text,mask1,Print,NA,1743112542863,ID,B,nonword,f,unrelated,plant,SCRANT,NULL
1743112568,6dffa5b13bbc885d12b84693177ae2f3,PennController,16,0,test,NULL,Timer,maskTimer1,Start,Start,1743112542863,ID,B,nonword,f,unrelated,plant,SCRANT,NULL
1743112568,6dffa5b13bbc885d12b84693177ae2f3,PennController,16,0,test,NULL,Timer,maskTimer1,End,End,1743112543363,ID,B,nonword,f,unrelated,plant,SCRANT,NULL
1743112568,6dffa5b13bbc885d12b84693177ae2f3,PennController,16,0,test,NULL,Text,prime,Print,NA,1743112543366,ID,B,nonword,f,unrelated,plant,SCRANT,NULL
1743112568,6dffa5b13bbc885d12b84693177ae2f3,PennController,16,0,test,NULL,Timer,primeTimer,Start,Start,1743112543367,ID,B,nonword,f,unrelated,plant,SCRANT,NULL
1743112568,6dffa5b13bbc885d12b84693177ae2f3,PennController,16,0,test,NULL,Timer,primeTimer,End,End,1743112543411,ID,B,nonword,f,unrelated,plant,SCRANT,NULL
1743112568,6dffa5b13bbc885d12b84693177ae2f3,PennController,16,0,test,NULL,Text,mask2,Print,NA,1743112543413,ID,B,nonword,f,unrelated,plant,SCRANT,NULL
1743112568,6dffa5b13bbc885d12b84693177ae2f3,PennController,16,0,test,NULL,Timer,maskTimer2,Start,Start,1743112543414,ID,B,nonword,f,unrelated,plant,SCRANT,NULL
1743112568,6dffa5b13bbc885d12b84693177ae2f3,PennController,16,0,test,NULL,Timer,maskTimer2,End,End,1743112543516,ID,B,nonword,f,unrelated,plant,SCRANT,NULL
1743112568,6dffa5b13bbc885d12b84693177ae2f3,PennController,16,0,test,NULL,Text,target,Print,NA,1743112543519,ID,B,nonword,f,unrelated,plant,SCRANT,NULL
1743112568,6dffa5b13bbc885d12b84693177ae2f3,PennController,16,0,test,NULL,Key,answerTarget,PressedKey,J,1743112544310,ID,B,nonword,f,unrelated,plant,SCRANT,Wait success
1743112568,6dffa5b13bbc885d12b84693177ae2f3,PennController,16,0,test,NULL,PennController,17,_Trial_,End,1743112544312,ID,B,nonword,f,unrelated,plant,SCRANT,NULL
1743112568,6dffa5b13bbc885d12b84693177ae2f3,PennController,4,0,test,NULL,PennController,5,_Trial_,Start,1743112544314,ID,B,word,j,unrelated,shoe,FITNESS,NULL
1743112568,6dffa5b13bbc885d12b84693177ae2f3,PennController,4,0,test,NULL,PennController,5,_Header_,Start,1743112544314,ID,B,word,j,unrelated,shoe,FITNESS,NULL
1743112568,6dffa5b13bbc885d12b84693177ae2f3,PennController,4,0,test,NULL,PennController,5,_Header_,End,1743112544315,ID,B,word,j,unrelated,shoe,FITNESS,NULL
1743112568,6dffa5b13bbc885d12b84693177ae2f3,PennController,4,0,test,NULL,Text,mask1,Print,NA,1743112544317,ID,B,word,j,unrelated,shoe,FITNESS,NULL
1743112568,6dffa5b13bbc885d12b84693177ae2f3,PennController,4,0,test,NULL,Timer,maskTimer1,Start,Start,1743112544318,ID,B,word,j,unrelated,shoe,FITNESS,NULL
1743112568,6dffa5b13bbc885d12b84693177ae2f3,PennController,4,0,test,NULL,Timer,maskTimer1,End,End,1743112544822,ID,B,word,j,unrelated,shoe,FITNESS,NULL
1743112568,6dffa5b13bbc885d12b84693177ae2f3,PennController,4,0,test,NULL,Text,prime,Print,NA,1743112544825,ID,B,word,j,unrelated,shoe,FITNESS,NULL
1743112568,6dffa5b13bbc885d12b84693177ae2f3,PennController,4,0,test,NULL,Timer,primeTimer,Start,Start,1743112544826,ID,B,word,j,unrelated,shoe,FITNESS,NULL
1743112568,6dffa5b13bbc885d12b84693177ae2f3,PennController,4,0,test,NULL,Timer,primeTimer,End,End,1743112544872,ID,B,word,j,unrelated,shoe,FITNESS,NULL
1743112568,6dffa5b13bbc885d12b84693177ae2f3,PennController,4,0,test,NULL,Text,mask2,Print,NA,1743112544874,ID,B,word,j,unrelated,shoe,FITNESS,NULL
1743112568,6dffa5b13bbc885d12b84693177ae2f3,PennController,4,0,test,NULL,Timer,maskTimer2,Start,Start,1743112544875,ID,B,word,j,unrelated,shoe,FITNESS,NULL
1743112568,6dffa5b13bbc885d12b84693177ae2f3,PennController,4,0,test,NULL,Timer,maskTimer2,End,End,1743112544978,ID,B,word,j,unrelated,shoe,FITNESS,NULL
1743112568,6dffa5b13bbc885d12b84693177ae2f3,PennController,4,0,test,NULL,Text,target,Print,NA,1743112544980,ID,B,word,j,unrelated,shoe,FITNESS,NULL
1743112568,6dffa5b13bbc885d12b84693177ae2f3,PennController,4,0,test,NULL,Key,answerTarget,PressedKey,F,1743112545724,ID,B,word,j,unrelated,shoe,FITNESS,Wait success
1743112568,6dffa5b13bbc885d12b84693177ae2f3,PennController,4,0,test,NULL,PennController,5,_Trial_,End,1743112545725,ID,B,word,j,unrelated,shoe,FITNESS,NULL
1743112568,6dffa5b13bbc885d12b84693177ae2f3,PennController,19,0,test,NULL,PennController,20,_Trial_,Start,1743112545728,ID,B,nonword,f,unrelated,window,FAMBLY,NULL
1743112568,6dffa5b13bbc885d12b84693177ae2f3,PennController,19,0,test,NULL,PennController,20,_Header_,Start,1743112545728,ID,B,nonword,f,unrelated,window,FAMBLY,NULL
1743112568,6dffa5b13bbc885d12b84693177ae2f3,PennController,19,0,test,NULL,PennController,20,_Header_,End,1743112545729,ID,B,nonword,f,unrelated,window,FAMBLY,NULL
1743112568,6dffa5b13bbc885d12b84693177ae2f3,PennController,19,0,test,NULL,Text,mask1,Print,NA,1743112545731,ID,B,nonword,f,unrelated,window,FAMBLY,NULL
1743112568,6dffa5b13bbc885d12b84693177ae2f3,PennController,19,0,test,NULL,Timer,maskTimer1,Start,Start,1743112545732,ID,B,nonword,f,unrelated,window,FAMBLY,NULL
1743112568,6dffa5b13bbc885d12b84693177ae2f3,PennController,19,0,test,NULL,Timer,maskTimer1,End,End,1743112546232,ID,B,nonword,f,unrelated,window,FAMBLY,NULL
1743112568,6dffa5b13bbc885d12b84693177ae2f3,PennController,19,0,test,NULL,Text,prime,Print,NA,1743112546235,ID,B,nonword,f,unrelated,window,FAMBLY,NULL
1743112568,6dffa5b13bbc885d12b84693177ae2f3,PennController,19,0,test,NULL,Timer,primeTimer,Start,Start,1743112546236,ID,B,nonword,f,unrelated,window,FAMBLY,NULL
1743112568,6dffa5b13bbc885d12b84693177ae2f3,PennController,19,0,test,NULL,Timer,primeTimer,End,End,1743112546280,ID,B,nonword,f,unrelated,window,FAMBLY,NULL
1743112568,6dffa5b13bbc885d12b84693177ae2f3,PennController,19,0,test,NULL,Text,mask2,Print,NA,1743112546282,ID,B,nonword,f,unrelated,window,FAMBLY,NULL
1743112568,6dffa5b13bbc885d12b84693177ae2f3,PennController,19,0,test,NULL,Timer,maskTimer2,Start,Start,1743112546283,ID,B,nonword,f,unrelated,window,FAMBLY,NULL
1743112568,6dffa5b13bbc885d12b84693177ae2f3,PennController,19,0,test,NULL,Timer,maskTimer2,End,End,1743112546383,ID,B,nonword,f,unrelated,window,FAMBLY,NULL
1743112568,6dffa5b13bbc885d12b84693177ae2f3,PennController,19,0,test,NULL,Text,target,Print,NA,1743112546385,ID,B,nonword,f,unrelated,window,FAMBLY,NULL
1743112568,6dffa5b13bbc885d12b84693177ae2f3,PennController,19,0,test,NULL,Key,answerTarget,PressedKey,J,1743112547423,ID,B,nonword,f,unrelated,window,FAMBLY,Wait success
1743112568,6dffa5b13bbc885d12b84693177ae2f3,PennController,19,0,test,NULL,PennController,20,_Trial_,End,1743112547425,ID,B,nonword,f,unrelated,window,FAMBLY,NULL
1743112568,6dffa5b13bbc885d12b84693177ae2f3,PennController,5,0,test,NULL,PennController,6,_Trial_,Start,1743112547427,ID,B,word,j,unrelated,door,VACATION,NULL
1743112568,6dffa5b13bbc885d12b84693177ae2f3,PennController,5,0,test,NULL,PennController,6,_Header_,Start,1743112547427,ID,B,word,j,unrelated,door,VACATION,NULL
1743112568,6dffa5b13bbc885d12b84693177ae2f3,PennController,5,0,test,NULL,PennController,6,_Header_,End,1743112547428,ID,B,word,j,unrelated,door,VACATION,NULL
1743112568,6dffa5b13bbc885d12b84693177ae2f3,PennController,5,0,test,NULL,Text,mask1,Print,NA,1743112547431,ID,B,word,j,unrelated,door,VACATION,NULL
1743112568,6dffa5b13bbc885d12b84693177ae2f3,PennController,5,0,test,NULL,Timer,maskTimer1,Start,Start,1743112547432,ID,B,word,j,unrelated,door,VACATION,NULL
1743112568,6dffa5b13bbc885d12b84693177ae2f3,PennController,5,0,test,NULL,Timer,maskTimer1,End,End,1743112547932,ID,B,word,j,unrelated,door,VACATION,NULL
1743112568,6dffa5b13bbc885d12b84693177ae2f3,PennController,5,0,test,NULL,Text,prime,Print,NA,1743112547934,ID,B,word,j,unrelated,door,VACATION,NULL
1743112568,6dffa5b13bbc885d12b84693177ae2f3,PennController,5,0,test,NULL,Timer,primeTimer,Start,Start,1743112547935,ID,B,word,j,unrelated,door,VACATION,NULL
1743112568,6dffa5b13bbc885d12b84693177ae2f3,PennController,5,0,test,NULL,Timer,primeTimer,End,End,1743112547978,ID,B,word,j,unrelated,door,VACATION,NULL
1743112568,6dffa5b13bbc885d12b84693177ae2f3,PennController,5,0,test,NULL,Text,mask2,Print,NA,1743112547980,ID,B,word,j,unrelated,door,VACATION,NULL
1743112568,6dffa5b13bbc885d12b84693177ae2f3,PennController,5,0,test,NULL,Timer,maskTimer2,Start,Start,1743112547981,ID,B,word,j,unrelated,door,VACATION,NULL
1743112568,6dffa5b13bbc885d12b84693177ae2f3,PennController,5,0,test,NULL,Timer,maskTimer2,End,End,1743112548085,ID,B,word,j,unrelated,door,VACATION,NULL
1743112568,6dffa5b13bbc885d12b84693177ae2f3,PennController,5,0,test,NULL,Text,target,Print,NA,1743112548087,ID,B,word,j,unrelated,door,VACATION,NULL
1743112568,6dffa5b13bbc885d12b84693177ae2f3,PennController,5,0,test,NULL,Key,answerTarget,PressedKey,F,1743112549020,ID,B,word,j,unrelated,door,VACATION,Wait success
1743112568,6dffa5b13bbc885d12b84693177ae2f3,PennController,5,0,test,NULL,PennController,6,_Trial_,End,1743112549021,ID,B,word,j,unrelated,door,VACATION,NULL
1743112568,6dffa5b13bbc885d12b84693177ae2f3,PennController,11,0,test,NULL,PennController,12,_Trial_,Start,1743112549023,ID,B,word,j,related,study,DEGREE,NULL
1743112568,6dffa5b13bbc885d12b84693177ae2f3,PennController,11,0,test,NULL,PennController,12,_Header_,Start,1743112549023,ID,B,word,j,related,study,DEGREE,NULL
1743112568,6dffa5b13bbc885d12b84693177ae2f3,PennController,11,0,test,NULL,PennController,12,_Header_,End,1743112549024,ID,B,word,j,related,study,DEGREE,NULL
1743112568,6dffa5b13bbc885d12b84693177ae2f3,PennController,11,0,test,NULL,Text,mask1,Print,NA,1743112549025,ID,B,word,j,related,study,DEGREE,NULL
1743112568,6dffa5b13bbc885d12b84693177ae2f3,PennController,11,0,test,NULL,Timer,maskTimer1,Start,Start,1743112549026,ID,B,word,j,related,study,DEGREE,NULL
1743112568,6dffa5b13bbc885d12b84693177ae2f3,PennController,11,0,test,NULL,Timer,maskTimer1,End,End,1743112549530,ID,B,word,j,related,study,DEGREE,NULL
1743112568,6dffa5b13bbc885d12b84693177ae2f3,PennController,11,0,test,NULL,Text,prime,Print,NA,1743112549532,ID,B,word,j,related,study,DEGREE,NULL
1743112568,6dffa5b13bbc885d12b84693177ae2f3,PennController,11,0,test,NULL,Timer,primeTimer,Start,Start,1743112549534,ID,B,word,j,related,study,DEGREE,NULL
1743112568,6dffa5b13bbc885d12b84693177ae2f3,PennController,11,0,test,NULL,Timer,primeTimer,End,End,1743112549578,ID,B,word,j,related,study,DEGREE,NULL
1743112568,6dffa5b13bbc885d12b84693177ae2f3,PennController,11,0,test,NULL,Text,mask2,Print,NA,1743112549580,ID,B,word,j,related,study,DEGREE,NULL
1743112568,6dffa5b13bbc885d12b84693177ae2f3,PennController,11,0,test,NULL,Timer,maskTimer2,Start,Start,1743112549581,ID,B,word,j,related,study,DEGREE,NULL
1743112568,6dffa5b13bbc885d12b84693177ae2f3,PennController,11,0,test,NULL,Timer,maskTimer2,End,End,1743112549683,ID,B,word,j,related,study,DEGREE,NULL
1743112568,6dffa5b13bbc885d12b84693177ae2f3,PennController,11,0,test,NULL,Text,target,Print,NA,1743112549685,ID,B,word,j,related,study,DEGREE,NULL
1743112568,6dffa5b13bbc885d12b84693177ae2f3,PennController,11,0,test,NULL,Key,answerTarget,PressedKey,F,1743112550458,ID,B,word,j,related,study,DEGREE,Wait success
1743112568,6dffa5b13bbc885d12b84693177ae2f3,PennController,11,0,test,NULL,PennController,12,_Trial_,End,1743112550460,ID,B,word,j,related,study,DEGREE,NULL
1743112568,6dffa5b13bbc885d12b84693177ae2f3,PennController,3,0,test,NULL,PennController,4,_Trial_,Start,1743112550463,ID,B,word,j,unrelated,street,LOVE,NULL
1743112568,6dffa5b13bbc885d12b84693177ae2f3,PennController,3,0,test,NULL,PennController,4,_Header_,Start,1743112550463,ID,B,word,j,unrelated,street,LOVE,NULL
1743112568,6dffa5b13bbc885d12b84693177ae2f3,PennController,3,0,test,NULL,PennController,4,_Header_,End,1743112550464,ID,B,word,j,unrelated,street,LOVE,NULL
1743112568,6dffa5b13bbc885d12b84693177ae2f3,PennController,3,0,test,NULL,Text,mask1,Print,NA,1743112550466,ID,B,word,j,unrelated,street,LOVE,NULL
1743112568,6dffa5b13bbc885d12b84693177ae2f3,PennController,3,0,test,NULL,Timer,maskTimer1,Start,Start,1743112550466,ID,B,word,j,unrelated,street,LOVE,NULL
1743112568,6dffa5b13bbc885d12b84693177ae2f3,PennController,3,0,test,NULL,Timer,maskTimer1,End,End,1743112550966,ID,B,word,j,unrelated,street,LOVE,NULL
1743112568,6dffa5b13bbc885d12b84693177ae2f3,PennController,3,0,test,NULL,Text,prime,Print,NA,1743112550969,ID,B,word,j,unrelated,street,LOVE,NULL
1743112568,6dffa5b13bbc885d12b84693177ae2f3,PennController,3,0,test,NULL,Timer,primeTimer,Start,Start,1743112550970,ID,B,word,j,unrelated,street,LOVE,NULL
1743112568,6dffa5b13bbc885d12b84693177ae2f3,PennController,3,0,test,NULL,Timer,primeTimer,End,End,1743112551013,ID,B,word,j,unrelated,street,LOVE,NULL
1743112568,6dffa5b13bbc885d12b84693177ae2f3,PennController,3,0,test,NULL,Text,mask2,Print,NA,1743112551016,ID,B,word,j,unrelated,street,LOVE,NULL
1743112568,6dffa5b13bbc885d12b84693177ae2f3,PennController,3,0,test,NULL,Timer,maskTimer2,Start,Start,1743112551017,ID,B,word,j,unrelated,street,LOVE,NULL
1743112568,6dffa5b13bbc885d12b84693177ae2f3,PennController,3,0,test,NULL,Timer,maskTimer2,End,End,1743112551119,ID,B,word,j,unrelated,street,LOVE,NULL
1743112568,6dffa5b13bbc885d12b84693177ae2f3,PennController,3,0,test,NULL,Text,target,Print,NA,1743112551122,ID,B,word,j,unrelated,street,LOVE,NULL
1743112568,6dffa5b13bbc885d12b84693177ae2f3,PennController,3,0,test,NULL,Key,answerTarget,PressedKey,F,1743112551840,ID,B,word,j,unrelated,street,LOVE,Wait success
1743112568,6dffa5b13bbc885d12b84693177ae2f3,PennController,3,0,test,NULL,PennController,4,_Trial_,End,1743112551842,ID,B,word,j,unrelated,street,LOVE,NULL
1743112568,6dffa5b13bbc885d12b84693177ae2f3,PennController,7,0,test,NULL,PennController,8,_Trial_,Start,1743112551845,ID,B,word,j,unrelated,floor,ANXIOUS,NULL
1743112568,6dffa5b13bbc885d12b84693177ae2f3,PennController,7,0,test,NULL,PennController,8,_Header_,Start,1743112551845,ID,B,word,j,unrelated,floor,ANXIOUS,NULL
1743112568,6dffa5b13bbc885d12b84693177ae2f3,PennController,7,0,test,NULL,PennController,8,_Header_,End,1743112551845,ID,B,word,j,unrelated,floor,ANXIOUS,NULL
1743112568,6dffa5b13bbc885d12b84693177ae2f3,PennController,7,0,test,NULL,Text,mask1,Print,NA,1743112551847,ID,B,word,j,unrelated,floor,ANXIOUS,NULL
1743112568,6dffa5b13bbc885d12b84693177ae2f3,PennController,7,0,test,NULL,Timer,maskTimer1,Start,Start,1743112551847,ID,B,word,j,unrelated,floor,ANXIOUS,NULL
1743112568,6dffa5b13bbc885d12b84693177ae2f3,PennController,7,0,test,NULL,Timer,maskTimer1,End,End,1743112552348,ID,B,word,j,unrelated,floor,ANXIOUS,NULL
1743112568,6dffa5b13bbc885d12b84693177ae2f3,PennController,7,0,test,NULL,Text,prime,Print,NA,1743112552350,ID,B,word,j,unrelated,floor,ANXIOUS,NULL
1743112568,6dffa5b13bbc885d12b84693177ae2f3,PennController,7,0,test,NULL,Timer,primeTimer,Start,Start,1743112552351,ID,B,word,j,unrelated,floor,ANXIOUS,NULL
1743112568,6dffa5b13bbc885d12b84693177ae2f3,PennController,7,0,test,NULL,Timer,primeTimer,End,End,1743112552396,ID,B,word,j,unrelated,floor,ANXIOUS,NULL
1743112568,6dffa5b13bbc885d12b84693177ae2f3,PennController,7,0,test,NULL,Text,mask2,Print,NA,1743112552398,ID,B,word,j,unrelated,floor,ANXIOUS,NULL
1743112568,6dffa5b13bbc885d12b84693177ae2f3,PennController,7,0,test,NULL,Timer,maskTimer2,Start,Start,1743112552399,ID,B,word,j,unrelated,floor,ANXIOUS,NULL
1743112568,6dffa5b13bbc885d12b84693177ae2f3,PennController,7,0,test,NULL,Timer,maskTimer2,End,End,1743112552501,ID,B,word,j,unrelated,floor,ANXIOUS,NULL
1743112568,6dffa5b13bbc885d12b84693177ae2f3,PennController,7,0,test,NULL,Text,target,Print,NA,1743112552503,ID,B,word,j,unrelated,floor,ANXIOUS,NULL
1743112568,6dffa5b13bbc885d12b84693177ae2f3,PennController,7,0,test,NULL,Key,answerTarget,PressedKey,F,1743112553251,ID,B,word,j,unrelated,floor,ANXIOUS,Wait success
1743112568,6dffa5b13bbc885d12b84693177ae2f3,PennController,7,0,test,NULL,PennController,8,_Trial_,End,1743112553253,ID,B,word,j,unrelated,floor,ANXIOUS,NULL
1743112568,6dffa5b13bbc885d12b84693177ae2f3,PennController,21,0,test,NULL,PennController,22,_Trial_,Start,1743112553256,ID,B,nonword,f,unrelated,picture,HAPY,NULL
1743112568,6dffa5b13bbc885d12b84693177ae2f3,PennController,21,0,test,NULL,PennController,22,_Header_,Start,1743112553256,ID,B,nonword,f,unrelated,picture,HAPY,NULL
1743112568,6dffa5b13bbc885d12b84693177ae2f3,PennController,21,0,test,NULL,PennController,22,_Header_,End,1743112553256,ID,B,nonword,f,unrelated,picture,HAPY,NULL
1743112568,6dffa5b13bbc885d12b84693177ae2f3,PennController,21,0,test,NULL,Text,mask1,Print,NA,1743112553257,ID,B,nonword,f,unrelated,picture,HAPY,NULL
1743112568,6dffa5b13bbc885d12b84693177ae2f3,PennController,21,0,test,NULL,Timer,maskTimer1,Start,Start,1743112553257,ID,B,nonword,f,unrelated,picture,HAPY,NULL
1743112568,6dffa5b13bbc885d12b84693177ae2f3,PennController,21,0,test,NULL,Timer,maskTimer1,End,End,1743112553757,ID,B,nonword,f,unrelated,picture,HAPY,NULL
1743112568,6dffa5b13bbc885d12b84693177ae2f3,PennController,21,0,test,NULL,Text,prime,Print,NA,1743112553759,ID,B,nonword,f,unrelated,picture,HAPY,NULL
1743112568,6dffa5b13bbc885d12b84693177ae2f3,PennController,21,0,test,NULL,Timer,primeTimer,Start,Start,1743112553760,ID,B,nonword,f,unrelated,picture,HAPY,NULL
1743112568,6dffa5b13bbc885d12b84693177ae2f3,PennController,21,0,test,NULL,Timer,primeTimer,End,End,1743112553805,ID,B,nonword,f,unrelated,picture,HAPY,NULL
1743112568,6dffa5b13bbc885d12b84693177ae2f3,PennController,21,0,test,NULL,Text,mask2,Print,NA,1743112553807,ID,B,nonword,f,unrelated,picture,HAPY,NULL
1743112568,6dffa5b13bbc885d12b84693177ae2f3,PennController,21,0,test,NULL,Timer,maskTimer2,Start,Start,1743112553808,ID,B,nonword,f,unrelated,picture,HAPY,NULL
1743112568,6dffa5b13bbc885d12b84693177ae2f3,PennController,21,0,test,NULL,Timer,maskTimer2,End,End,1743112553911,ID,B,nonword,f,unrelated,picture,HAPY,NULL
1743112568,6dffa5b13bbc885d12b84693177ae2f3,PennController,21,0,test,NULL,Text,target,Print,NA,1743112553913,ID,B,nonword,f,unrelated,picture,HAPY,NULL
1743112568,6dffa5b13bbc885d12b84693177ae2f3,PennController,21,0,test,NULL,Key,answerTarget,PressedKey,J,1743112554833,ID,B,nonword,f,unrelated,picture,HAPY,Wait success
1743112568,6dffa5b13bbc885d12b84693177ae2f3,PennController,21,0,test,NULL,PennController,22,_Trial_,End,1743112554834,ID,B,nonword,f,unrelated,picture,HAPY,NULL
1743112568,6dffa5b13bbc885d12b84693177ae2f3,PennController,14,0,test,NULL,PennController,15,_Trial_,Start,1743112554836,ID,B,nonword,f,unrelated,chair,FLIGGLE,NULL
1743112568,6dffa5b13bbc885d12b84693177ae2f3,PennController,14,0,test,NULL,PennController,15,_Header_,Start,1743112554836,ID,B,nonword,f,unrelated,chair,FLIGGLE,NULL
1743112568,6dffa5b13bbc885d12b84693177ae2f3,PennController,14,0,test,NULL,PennController,15,_Header_,End,1743112554837,ID,B,nonword,f,unrelated,chair,FLIGGLE,NULL
1743112568,6dffa5b13bbc885d12b84693177ae2f3,PennController,14,0,test,NULL,Text,mask1,Print,NA,1743112554839,ID,B,nonword,f,unrelated,chair,FLIGGLE,NULL
1743112568,6dffa5b13bbc885d12b84693177ae2f3,PennController,14,0,test,NULL,Timer,maskTimer1,Start,Start,1743112554839,ID,B,nonword,f,unrelated,chair,FLIGGLE,NULL
1743112568,6dffa5b13bbc885d12b84693177ae2f3,PennController,14,0,test,NULL,Timer,maskTimer1,End,End,1743112555341,ID,B,nonword,f,unrelated,chair,FLIGGLE,NULL
1743112568,6dffa5b13bbc885d12b84693177ae2f3,PennController,14,0,test,NULL,Text,prime,Print,NA,1743112555343,ID,B,nonword,f,unrelated,chair,FLIGGLE,NULL
1743112568,6dffa5b13bbc885d12b84693177ae2f3,PennController,14,0,test,NULL,Timer,primeTimer,Start,Start,1743112555344,ID,B,nonword,f,unrelated,chair,FLIGGLE,NULL
1743112568,6dffa5b13bbc885d12b84693177ae2f3,PennController,14,0,test,NULL,Timer,primeTimer,End,End,1743112555387,ID,B,nonword,f,unrelated,chair,FLIGGLE,NULL
1743112568,6dffa5b13bbc885d12b84693177ae2f3,PennController,14,0,test,NULL,Text,mask2,Print,NA,1743112555389,ID,B,nonword,f,unrelated,chair,FLIGGLE,NULL
1743112568,6dffa5b13bbc885d12b84693177ae2f3,PennController,14,0,test,NULL,Timer,maskTimer2,Start,Start,1743112555390,ID,B,nonword,f,unrelated,chair,FLIGGLE,NULL
1743112568,6dffa5b13bbc885d12b84693177ae2f3,PennController,14,0,test,NULL,Timer,maskTimer2,End,End,1743112555493,ID,B,nonword,f,unrelated,chair,FLIGGLE,NULL
1743112568,6dffa5b13bbc885d12b84693177ae2f3,PennController,14,0,test,NULL,Text,target,Print,NA,1743112555495,ID,B,nonword,f,unrelated,chair,FLIGGLE,NULL
1743112568,6dffa5b13bbc885d12b84693177ae2f3,PennController,14,0,test,NULL,Key,answerTarget,PressedKey,J,1743112556326,ID,B,nonword,f,unrelated,chair,FLIGGLE,Wait success
1743112568,6dffa5b13bbc885d12b84693177ae2f3,PennController,14,0,test,NULL,PennController,15,_Trial_,End,1743112556328,ID,B,nonword,f,unrelated,chair,FLIGGLE,NULL
1743112568,6dffa5b13bbc885d12b84693177ae2f3,PennController,10,0,test,NULL,PennController,11,_Trial_,Start,1743112556329,ID,B,word,j,related,happy,JOYFUL,NULL
1743112568,6dffa5b13bbc885d12b84693177ae2f3,PennController,10,0,test,NULL,PennController,11,_Header_,Start,1743112556329,ID,B,word,j,related,happy,JOYFUL,NULL
1743112568,6dffa5b13bbc885d12b84693177ae2f3,PennController,10,0,test,NULL,PennController,11,_Header_,End,1743112556330,ID,B,word,j,related,happy,JOYFUL,NULL
1743112568,6dffa5b13bbc885d12b84693177ae2f3,PennController,10,0,test,NULL,Text,mask1,Print,NA,1743112556331,ID,B,word,j,related,happy,JOYFUL,NULL
1743112568,6dffa5b13bbc885d12b84693177ae2f3,PennController,10,0,test,NULL,Timer,maskTimer1,Start,Start,1743112556332,ID,B,word,j,related,happy,JOYFUL,NULL
1743112568,6dffa5b13bbc885d12b84693177ae2f3,PennController,10,0,test,NULL,Timer,maskTimer1,End,End,1743112556834,ID,B,word,j,related,happy,JOYFUL,NULL
1743112568,6dffa5b13bbc885d12b84693177ae2f3,PennController,10,0,test,NULL,Text,prime,Print,NA,1743112556836,ID,B,word,j,related,happy,JOYFUL,NULL
1743112568,6dffa5b13bbc885d12b84693177ae2f3,PennController,10,0,test,NULL,Timer,primeTimer,Start,Start,1743112556837,ID,B,word,j,related,happy,JOYFUL,NULL
1743112568,6dffa5b13bbc885d12b84693177ae2f3,PennController,10,0,test,NULL,Timer,primeTimer,End,End,1743112556880,ID,B,word,j,related,happy,JOYFUL,NULL
1743112568,6dffa5b13bbc885d12b84693177ae2f3,PennController,10,0,test,NULL,Text,mask2,Print,NA,1743112556882,ID,B,word,j,related,happy,JOYFUL,NULL
1743112568,6dffa5b13bbc885d12b84693177ae2f3,PennController,10,0,test,NULL,Timer,maskTimer2,Start,Start,1743112556883,ID,B,word,j,related,happy,JOYFUL,NULL
1743112568,6dffa5b13bbc885d12b84693177ae2f3,PennController,10,0,test,NULL,Timer,maskTimer2,End,End,1743112556987,ID,B,word,j,related,happy,JOYFUL,NULL
1743112568,6dffa5b13bbc885d12b84693177ae2f3,PennController,10,0,test,NULL,Text,target,Print,NA,1743112556989,ID,B,word,j,related,happy,JOYFUL,NULL
1743112568,6dffa5b13bbc885d12b84693177ae2f3,PennController,10,0,test,NULL,Key,answerTarget,PressedKey,F,1743112557807,ID,B,word,j,related,happy,JOYFUL,Wait success
1743112568,6dffa5b13bbc885d12b84693177ae2f3,PennController,10,0,test,NULL,PennController,11,_Trial_,End,1743112557809,ID,B,word,j,related,happy,JOYFUL,NULL
1743112568,6dffa5b13bbc885d12b84693177ae2f3,PennController,18,0,test,NULL,PennController,19,_Trial_,Start,1743112557811,ID,B,nonword,f,unrelated,book,SUCCESH,NULL
1743112568,6dffa5b13bbc885d12b84693177ae2f3,PennController,18,0,test,NULL,PennController,19,_Header_,Start,1743112557811,ID,B,nonword,f,unrelated,book,SUCCESH,NULL
1743112568,6dffa5b13bbc885d12b84693177ae2f3,PennController,18,0,test,NULL,PennController,19,_Header_,End,1743112557812,ID,B,nonword,f,unrelated,book,SUCCESH,NULL
1743112568,6dffa5b13bbc885d12b84693177ae2f3,PennController,18,0,test,NULL,Text,mask1,Print,NA,1743112557813,ID,B,nonword,f,unrelated,book,SUCCESH,NULL
1743112568,6dffa5b13bbc885d12b84693177ae2f3,PennController,18,0,test,NULL,Timer,maskTimer1,Start,Start,1743112557813,ID,B,nonword,f,unrelated,book,SUCCESH,NULL
1743112568,6dffa5b13bbc885d12b84693177ae2f3,PennController,18,0,test,NULL,Timer,maskTimer1,End,End,1743112558316,ID,B,nonword,f,unrelated,book,SUCCESH,NULL
1743112568,6dffa5b13bbc885d12b84693177ae2f3,PennController,18,0,test,NULL,Text,prime,Print,NA,1743112558319,ID,B,nonword,f,unrelated,book,SUCCESH,NULL
1743112568,6dffa5b13bbc885d12b84693177ae2f3,PennController,18,0,test,NULL,Timer,primeTimer,Start,Start,1743112558320,ID,B,nonword,f,unrelated,book,SUCCESH,NULL
1743112568,6dffa5b13bbc885d12b84693177ae2f3,PennController,18,0,test,NULL,Timer,primeTimer,End,End,1743112558363,ID,B,nonword,f,unrelated,book,SUCCESH,NULL
1743112568,6dffa5b13bbc885d12b84693177ae2f3,PennController,18,0,test,NULL,Text,mask2,Print,NA,1743112558365,ID,B,nonword,f,unrelated,book,SUCCESH,NULL
1743112568,6dffa5b13bbc885d12b84693177ae2f3,PennController,18,0,test,NULL,Timer,maskTimer2,Start,Start,1743112558366,ID,B,nonword,f,unrelated,book,SUCCESH,NULL
1743112568,6dffa5b13bbc885d12b84693177ae2f3,PennController,18,0,test,NULL,Timer,maskTimer2,End,End,1743112558468,ID,B,nonword,f,unrelated,book,SUCCESH,NULL
1743112568,6dffa5b13bbc885d12b84693177ae2f3,PennController,18,0,test,NULL,Text,target,Print,NA,1743112558471,ID,B,nonword,f,unrelated,book,SUCCESH,NULL
1743112568,6dffa5b13bbc885d12b84693177ae2f3,PennController,18,0,test,NULL,Key,answerTarget,PressedKey,J,1743112559420,ID,B,nonword,f,unrelated,book,SUCCESH,Wait success
1743112568,6dffa5b13bbc885d12b84693177ae2f3,PennController,18,0,test,NULL,PennController,19,_Trial_,End,1743112559422,ID,B,nonword,f,unrelated,book,SUCCESH,NULL
1743112568,6dffa5b13bbc885d12b84693177ae2f3,PennController,12,0,test,NULL,PennController,13,_Trial_,Start,1743112559425,ID,B,word,j,related,party,FUN,NULL
1743112568,6dffa5b13bbc885d12b84693177ae2f3,PennController,12,0,test,NULL,PennController,13,_Header_,Start,1743112559425,ID,B,word,j,related,party,FUN,NULL
1743112568,6dffa5b13bbc885d12b84693177ae2f3,PennController,12,0,test,NULL,PennController,13,_Header_,End,1743112559426,ID,B,word,j,related,party,FUN,NULL
1743112568,6dffa5b13bbc885d12b84693177ae2f3,PennController,12,0,test,NULL,Text,mask1,Print,NA,1743112559429,ID,B,word,j,related,party,FUN,NULL
1743112568,6dffa5b13bbc885d12b84693177ae2f3,PennController,12,0,test,NULL,Timer,maskTimer1,Start,Start,1743112559429,ID,B,word,j,related,party,FUN,NULL
1743112568,6dffa5b13bbc885d12b84693177ae2f3,PennController,12,0,test,NULL,Timer,maskTimer1,End,End,1743112559931,ID,B,word,j,related,party,FUN,NULL
1743112568,6dffa5b13bbc885d12b84693177ae2f3,PennController,12,0,test,NULL,Text,prime,Print,NA,1743112559934,ID,B,word,j,related,party,FUN,NULL
1743112568,6dffa5b13bbc885d12b84693177ae2f3,PennController,12,0,test,NULL,Timer,primeTimer,Start,Start,1743112559934,ID,B,word,j,related,party,FUN,NULL
1743112568,6dffa5b13bbc885d12b84693177ae2f3,PennController,12,0,test,NULL,Timer,primeTimer,End,End,1743112559979,ID,B,word,j,related,party,FUN,NULL
1743112568,6dffa5b13bbc885d12b84693177ae2f3,PennController,12,0,test,NULL,Text,mask2,Print,NA,1743112559981,ID,B,word,j,related,party,FUN,NULL
1743112568,6dffa5b13bbc885d12b84693177ae2f3,PennController,12,0,test,NULL,Timer,maskTimer2,Start,Start,1743112559982,ID,B,word,j,related,party,FUN,NULL
1743112568,6dffa5b13bbc885d12b84693177ae2f3,PennController,12,0,test,NULL,Timer,maskTimer2,End,End,1743112560085,ID,B,word,j,related,party,FUN,NULL
1743112568,6dffa5b13bbc885d12b84693177ae2f3,PennController,12,0,test,NULL,Text,target,Print,NA,1743112560087,ID,B,word,j,related,party,FUN,NULL
1743112568,6dffa5b13bbc885d12b84693177ae2f3,PennController,12,0,test,NULL,Key,answerTarget,PressedKey,F,1743112560662,ID,B,word,j,related,party,FUN,Wait success
1743112568,6dffa5b13bbc885d12b84693177ae2f3,PennController,12,0,test,NULL,PennController,13,_Trial_,End,1743112560665,ID,B,word,j,related,party,FUN,NULL
1743112568,6dffa5b13bbc885d12b84693177ae2f3,PennController,15,0,test,NULL,PennController,16,_Trial_,Start,1743112560666,ID,B,nonword,f,unrelated,light,WORBLE,NULL
1743112568,6dffa5b13bbc885d12b84693177ae2f3,PennController,15,0,test,NULL,PennController,16,_Header_,Start,1743112560666,ID,B,nonword,f,unrelated,light,WORBLE,NULL
1743112568,6dffa5b13bbc885d12b84693177ae2f3,PennController,15,0,test,NULL,PennController,16,_Header_,End,1743112560666,ID,B,nonword,f,unrelated,light,WORBLE,NULL
1743112568,6dffa5b13bbc885d12b84693177ae2f3,PennController,15,0,test,NULL,Text,mask1,Print,NA,1743112560667,ID,B,nonword,f,unrelated,light,WORBLE,NULL
1743112568,6dffa5b13bbc885d12b84693177ae2f3,PennController,15,0,test,NULL,Timer,maskTimer1,Start,Start,1743112560668,ID,B,nonword,f,unrelated,light,WORBLE,NULL
1743112568,6dffa5b13bbc885d12b84693177ae2f3,PennController,15,0,test,NULL,Timer,maskTimer1,End,End,1743112561168,ID,B,nonword,f,unrelated,light,WORBLE,NULL
1743112568,6dffa5b13bbc885d12b84693177ae2f3,PennController,15,0,test,NULL,Text,prime,Print,NA,1743112561170,ID,B,nonword,f,unrelated,light,WORBLE,NULL
1743112568,6dffa5b13bbc885d12b84693177ae2f3,PennController,15,0,test,NULL,Timer,primeTimer,Start,Start,1743112561171,ID,B,nonword,f,unrelated,light,WORBLE,NULL
1743112568,6dffa5b13bbc885d12b84693177ae2f3,PennController,15,0,test,NULL,Timer,primeTimer,End,End,1743112561216,ID,B,nonword,f,unrelated,light,WORBLE,NULL
1743112568,6dffa5b13bbc885d12b84693177ae2f3,PennController,15,0,test,NULL,Text,mask2,Print,NA,1743112561219,ID,B,nonword,f,unrelated,light,WORBLE,NULL
1743112568,6dffa5b13bbc885d12b84693177ae2f3,PennController,15,0,test,NULL,Timer,maskTimer2,Start,Start,1743112561220,ID,B,nonword,f,unrelated,light,WORBLE,NULL
1743112568,6dffa5b13bbc885d12b84693177ae2f3,PennController,15,0,test,NULL,Timer,maskTimer2,End,End,1743112561322,ID,B,nonword,f,unrelated,light,WORBLE,NULL
1743112568,6dffa5b13bbc885d12b84693177ae2f3,PennController,15,0,test,NULL,Text,target,Print,NA,1743112561325,ID,B,nonword,f,unrelated,light,WORBLE,NULL
1743112568,6dffa5b13bbc885d12b84693177ae2f3,PennController,15,0,test,NULL,Key,answerTarget,PressedKey,J,1743112562454,ID,B,nonword,f,unrelated,light,WORBLE,Wait success
1743112568,6dffa5b13bbc885d12b84693177ae2f3,PennController,15,0,test,NULL,PennController,16,_Trial_,End,1743112562456,ID,B,nonword,f,unrelated,light,WORBLE,NULL
1743112568,6dffa5b13bbc885d12b84693177ae2f3,PennController,2,0,test,NULL,PennController,3,_Trial_,Start,1743112562459,ID,B,word,j,unrelated,table,SUCCESS,NULL
1743112568,6dffa5b13bbc885d12b84693177ae2f3,PennController,2,0,test,NULL,PennController,3,_Header_,Start,1743112562459,ID,B,word,j,unrelated,table,SUCCESS,NULL
1743112568,6dffa5b13bbc885d12b84693177ae2f3,PennController,2,0,test,NULL,PennController,3,_Header_,End,1743112562460,ID,B,word,j,unrelated,table,SUCCESS,NULL
1743112568,6dffa5b13bbc885d12b84693177ae2f3,PennController,2,0,test,NULL,Text,mask1,Print,NA,1743112562462,ID,B,word,j,unrelated,table,SUCCESS,NULL
1743112568,6dffa5b13bbc885d12b84693177ae2f3,PennController,2,0,test,NULL,Timer,maskTimer1,Start,Start,1743112562462,ID,B,word,j,unrelated,table,SUCCESS,NULL
1743112568,6dffa5b13bbc885d12b84693177ae2f3,PennController,2,0,test,NULL,Timer,maskTimer1,End,End,1743112562965,ID,B,word,j,unrelated,table,SUCCESS,NULL
1743112568,6dffa5b13bbc885d12b84693177ae2f3,PennController,2,0,test,NULL,Text,prime,Print,NA,1743112562967,ID,B,word,j,unrelated,table,SUCCESS,NULL
1743112568,6dffa5b13bbc885d12b84693177ae2f3,PennController,2,0,test,NULL,Timer,primeTimer,Start,Start,1743112562967,ID,B,word,j,unrelated,table,SUCCESS,NULL
1743112568,6dffa5b13bbc885d12b84693177ae2f3,PennController,2,0,test,NULL,Timer,primeTimer,End,End,1743112563011,ID,B,word,j,unrelated,table,SUCCESS,NULL
1743112568,6dffa5b13bbc885d12b84693177ae2f3,PennController,2,0,test,NULL,Text,mask2,Print,NA,1743112563014,ID,B,word,j,unrelated,table,SUCCESS,NULL
1743112568,6dffa5b13bbc885d12b84693177ae2f3,PennController,2,0,test,NULL,Timer,maskTimer2,Start,Start,1743112563015,ID,B,word,j,unrelated,table,SUCCESS,NULL
1743112568,6dffa5b13bbc885d12b84693177ae2f3,PennController,2,0,test,NULL,Timer,maskTimer2,End,End,1743112563117,ID,B,word,j,unrelated,table,SUCCESS,NULL
1743112568,6dffa5b13bbc885d12b84693177ae2f3,PennController,2,0,test,NULL,Text,target,Print,NA,1743112563120,ID,B,word,j,unrelated,table,SUCCESS,NULL
1743112568,6dffa5b13bbc885d12b84693177ae2f3,PennController,2,0,test,NULL,Key,answerTarget,PressedKey,F,1743112563931,ID,B,word,j,unrelated,table,SUCCESS,Wait success
1743112568,6dffa5b13bbc885d12b84693177ae2f3,PennController,2,0,test,NULL,PennController,3,_Trial_,End,1743112563933,ID,B,word,j,unrelated,table,SUCCESS,NULL
1743112568,6dffa5b13bbc885d12b84693177ae2f3,PennController,9,0,test,NULL,PennController,10,_Trial_,Start,1743112563934,ID,B,word,j,related,friend,SUPPORT,NULL
1743112568,6dffa5b13bbc885d12b84693177ae2f3,PennController,9,0,test,NULL,PennController,10,_Header_,Start,1743112563934,ID,B,word,j,related,friend,SUPPORT,NULL
1743112568,6dffa5b13bbc885d12b84693177ae2f3,PennController,9,0,test,NULL,PennController,10,_Header_,End,1743112563935,ID,B,word,j,related,friend,SUPPORT,NULL
1743112568,6dffa5b13bbc885d12b84693177ae2f3,PennController,9,0,test,NULL,Text,mask1,Print,NA,1743112563937,ID,B,word,j,related,friend,SUPPORT,NULL
1743112568,6dffa5b13bbc885d12b84693177ae2f3,PennController,9,0,test,NULL,Timer,maskTimer1,Start,Start,1743112563937,ID,B,word,j,related,friend,SUPPORT,NULL
1743112568,6dffa5b13bbc885d12b84693177ae2f3,PennController,9,0,test,NULL,Timer,maskTimer1,End,End,1743112564441,ID,B,word,j,related,friend,SUPPORT,NULL
1743112568,6dffa5b13bbc885d12b84693177ae2f3,PennController,9,0,test,NULL,Text,prime,Print,NA,1743112564443,ID,B,word,j,related,friend,SUPPORT,NULL
1743112568,6dffa5b13bbc885d12b84693177ae2f3,PennController,9,0,test,NULL,Timer,primeTimer,Start,Start,1743112564444,ID,B,word,j,related,friend,SUPPORT,NULL
1743112568,6dffa5b13bbc885d12b84693177ae2f3,PennController,9,0,test,NULL,Timer,primeTimer,End,End,1743112564488,ID,B,word,j,related,friend,SUPPORT,NULL
1743112568,6dffa5b13bbc885d12b84693177ae2f3,PennController,9,0,test,NULL,Text,mask2,Print,NA,1743112564490,ID,B,word,j,related,friend,SUPPORT,NULL
1743112568,6dffa5b13bbc885d12b84693177ae2f3,PennController,9,0,test,NULL,Timer,maskTimer2,Start,Start,1743112564492,ID,B,word,j,related,friend,SUPPORT,NULL
1743112568,6dffa5b13bbc885d12b84693177ae2f3,PennController,9,0,test,NULL,Timer,maskTimer2,End,End,1743112564595,ID,B,word,j,related,friend,SUPPORT,NULL
1743112568,6dffa5b13bbc885d12b84693177ae2f3,PennController,9,0,test,NULL,Text,target,Print,NA,1743112564597,ID,B,word,j,related,friend,SUPPORT,NULL
1743112568,6dffa5b13bbc885d12b84693177ae2f3,PennController,9,0,test,NULL,Key,answerTarget,PressedKey,F,1743112565179,ID,B,word,j,related,friend,SUPPORT,Wait success
1743112568,6dffa5b13bbc885d12b84693177ae2f3,PennController,9,0,test,NULL,PennController,10,_Trial_,End,1743112565181,ID,B,word,j,related,friend,SUPPORT,NULL
1743112568,6dffa5b13bbc885d12b84693177ae2f3,PennController,6,0,test,NULL,PennController,7,_Trial_,Start,1743112565183,ID,B,word,j,unrelated,paper,COMFORT,NULL
1743112568,6dffa5b13bbc885d12b84693177ae2f3,PennController,6,0,test,NULL,PennController,7,_Header_,Start,1743112565183,ID,B,word,j,unrelated,paper,COMFORT,NULL
1743112568,6dffa5b13bbc885d12b84693177ae2f3,PennController,6,0,test,NULL,PennController,7,_Header_,End,1743112565184,ID,B,word,j,unrelated,paper,COMFORT,NULL
1743112568,6dffa5b13bbc885d12b84693177ae2f3,PennController,6,0,test,NULL,Text,mask1,Print,NA,1743112565186,ID,B,word,j,unrelated,paper,COMFORT,NULL
1743112568,6dffa5b13bbc885d12b84693177ae2f3,PennController,6,0,test,NULL,Timer,maskTimer1,Start,Start,1743112565187,ID,B,word,j,unrelated,paper,COMFORT,NULL
1743112568,6dffa5b13bbc885d12b84693177ae2f3,PennController,6,0,test,NULL,Timer,maskTimer1,End,End,1743112565688,ID,B,word,j,unrelated,paper,COMFORT,NULL
1743112568,6dffa5b13bbc885d12b84693177ae2f3,PennController,6,0,test,NULL,Text,prime,Print,NA,1743112565691,ID,B,word,j,unrelated,paper,COMFORT,NULL
1743112568,6dffa5b13bbc885d12b84693177ae2f3,PennController,6,0,test,NULL,Timer,primeTimer,Start,Start,1743112565692,ID,B,word,j,unrelated,paper,COMFORT,NULL
1743112568,6dffa5b13bbc885d12b84693177ae2f3,PennController,6,0,test,NULL,Timer,primeTimer,End,End,1743112565737,ID,B,word,j,unrelated,paper,COMFORT,NULL
1743112568,6dffa5b13bbc885d12b84693177ae2f3,PennController,6,0,test,NULL,Text,mask2,Print,NA,1743112565740,ID,B,word,j,unrelated,paper,COMFORT,NULL
1743112568,6dffa5b13bbc885d12b84693177ae2f3,PennController,6,0,test,NULL,Timer,maskTimer2,Start,Start,1743112565741,ID,B,word,j,unrelated,paper,COMFORT,NULL
1743112568,6dffa5b13bbc885d12b84693177ae2f3,PennController,6,0,test,NULL,Timer,maskTimer2,End,End,1743112565844,ID,B,word,j,unrelated,paper,COMFORT,NULL
1743112568,6dffa5b13bbc885d12b84693177ae2f3,PennController,6,0,test,NULL,Text,target,Print,NA,1743112565846,ID,B,word,j,unrelated,paper,COMFORT,NULL
1743112568,6dffa5b13bbc885d12b84693177ae2f3,PennController,6,0,test,NULL,Key,answerTarget,PressedKey,F,1743112566471,ID,B,word,j,unrelated,paper,COMFORT,Wait success
1743112568,6dffa5b13bbc885d12b84693177ae2f3,PennController,6,0,test,NULL,PennController,7,_Trial_,End,1743112566472,ID,B,word,j,unrelated,paper,COMFORT,NULL
1743112568,6dffa5b13bbc885d12b84693177ae2f3,PennController,17,0,test,NULL,PennController,18,_Trial_,Start,1743112566474,ID,B,nonword,f,unrelated,phone,PLORB,NULL
1743112568,6dffa5b13bbc885d12b84693177ae2f3,PennController,17,0,test,NULL,PennController,18,_Header_,Start,1743112566474,ID,B,nonword,f,unrelated,phone,PLORB,NULL
1743112568,6dffa5b13bbc885d12b84693177ae2f3,PennController,17,0,test,NULL,PennController,18,_Header_,End,1743112566475,ID,B,nonword,f,unrelated,phone,PLORB,NULL
1743112568,6dffa5b13bbc885d12b84693177ae2f3,PennController,17,0,test,NULL,Text,mask1,Print,NA,1743112566477,ID,B,nonword,f,unrelated,phone,PLORB,NULL
1743112568,6dffa5b13bbc885d12b84693177ae2f3,PennController,17,0,test,NULL,Timer,maskTimer1,Start,Start,1743112566477,ID,B,nonword,f,unrelated,phone,PLORB,NULL
1743112568,6dffa5b13bbc885d12b84693177ae2f3,PennController,17,0,test,NULL,Timer,maskTimer1,End,End,1743112566982,ID,B,nonword,f,unrelated,phone,PLORB,NULL
1743112568,6dffa5b13bbc885d12b84693177ae2f3,PennController,17,0,test,NULL,Text,prime,Print,NA,1743112566984,ID,B,nonword,f,unrelated,phone,PLORB,NULL
1743112568,6dffa5b13bbc885d12b84693177ae2f3,PennController,17,0,test,NULL,Timer,primeTimer,Start,Start,1743112566985,ID,B,nonword,f,unrelated,phone,PLORB,NULL
1743112568,6dffa5b13bbc885d12b84693177ae2f3,PennController,17,0,test,NULL,Timer,primeTimer,End,End,1743112567029,ID,B,nonword,f,unrelated,phone,PLORB,NULL
1743112568,6dffa5b13bbc885d12b84693177ae2f3,PennController,17,0,test,NULL,Text,mask2,Print,NA,1743112567032,ID,B,nonword,f,unrelated,phone,PLORB,NULL
1743112568,6dffa5b13bbc885d12b84693177ae2f3,PennController,17,0,test,NULL,Timer,maskTimer2,Start,Start,1743112567033,ID,B,nonword,f,unrelated,phone,PLORB,NULL
1743112568,6dffa5b13bbc885d12b84693177ae2f3,PennController,17,0,test,NULL,Timer,maskTimer2,End,End,1743112567133,ID,B,nonword,f,unrelated,phone,PLORB,NULL
1743112568,6dffa5b13bbc885d12b84693177ae2f3,PennController,17,0,test,NULL,Text,target,Print,NA,1743112567136,ID,B,nonword,f,unrelated,phone,PLORB,NULL
1743112568,6dffa5b13bbc885d12b84693177ae2f3,PennController,17,0,test,NULL,Key,answerTarget,PressedKey,J,1743112567809,ID,B,nonword,f,unrelated,phone,PLORB,Wait success
1743112568,6dffa5b13bbc885d12b84693177ae2f3,PennController,17,0,test,NULL,PennController,18,_Trial_,End,1743112567811,ID,B,nonword,f,unrelated,phone,PLORB,NULL
#
# Results on Thu, 27 Mar 2025 22:15:38 GMT
# USER AGENT: Mozilla/5.0 (Macintosh; Intel Mac OS X 10.15; rv:136.0) Gecko/20100101 Firefox/136.0
# Design number was non-random = 2
#
# Columns below this comment are as follows:
# 1. Results reception time.
# 2. MD5 hash of participant's IP address.
# 3. Controller name.
# 4. Order number of item.
# 5. Inner element number.
# 6. Label.
# 7. Latin Square Group.
# 8. PennElementType.
# 9. PennElementName.
# 10. Parameter.
# 11. Value.
# 12. EventTime.
# 13. ID.
# 14. Comments.
1743113738,6f04fad9571c4b100f16be0d73cdc1ae,PennController,0,0,welcome,NULL,PennController,0,_Trial_,Start,1743113705745,ID,NULL
1743113738,6f04fad9571c4b100f16be0d73cdc1ae,PennController,0,0,welcome,NULL,PennController,0,_Header_,Start,1743113705745,ID,NULL
1743113738,6f04fad9571c4b100f16be0d73cdc1ae,PennController,0,0,welcome,NULL,PennController,0,_Header_,End,1743113705747,ID,NULL
1743113738,6f04fad9571c4b100f16be0d73cdc1ae,PennController,0,0,welcome,NULL,PennController,0,_Trial_,End,1743113708585,ID,NULL
1743113738,6f04fad9571c4b100f16be0d73cdc1ae,PennController,1,0,practice,NULL,PennController,1,_Trial_,Start,1743113708588,ID,NULL
1743113738,6f04fad9571c4b100f16be0d73cdc1ae,PennController,1,0,practice,NULL,PennController,1,_Header_,Start,1743113708588,ID,NULL
1743113738,6f04fad9571c4b100f16be0d73cdc1ae,PennController,1,0,practice,NULL,PennController,1,_Header_,End,1743113708589,ID,NULL
1743113738,6f04fad9571c4b100f16be0d73cdc1ae,PennController,1,0,practice,NULL,PennController,1,_Trial_,End,1743113711015,ID,NULL
# 14. Group.
# 15. Condition.
# 16. Expected.
# 17. PrimeType.
# 18. PrimeWord.
# 19. TargetWord.
# 20. Comments.
1743113738,6f04fad9571c4b100f16be0d73cdc1ae,PennController,15,0,test,NULL,PennController,16,_Trial_,Start,1743113711020,ID,A,nonword,f,unrelated,light,WORBLE,NULL
1743113738,6f04fad9571c4b100f16be0d73cdc1ae,PennController,15,0,test,NULL,PennController,16,_Header_,Start,1743113711020,ID,A,nonword,f,unrelated,light,WORBLE,NULL
1743113738,6f04fad9571c4b100f16be0d73cdc1ae,PennController,15,0,test,NULL,PennController,16,_Header_,End,1743113711021,ID,A,nonword,f,unrelated,light,WORBLE,NULL
1743113738,6f04fad9571c4b100f16be0d73cdc1ae,PennController,15,0,test,NULL,Text,mask1,Print,NA,1743113711025,ID,A,nonword,f,unrelated,light,WORBLE,NULL
1743113738,6f04fad9571c4b100f16be0d73cdc1ae,PennController,15,0,test,NULL,Timer,maskTimer1,Start,Start,1743113711025,ID,A,nonword,f,unrelated,light,WORBLE,NULL
1743113738,6f04fad9571c4b100f16be0d73cdc1ae,PennController,15,0,test,NULL,Timer,maskTimer1,End,End,1743113711529,ID,A,nonword,f,unrelated,light,WORBLE,NULL
1743113738,6f04fad9571c4b100f16be0d73cdc1ae,PennController,15,0,test,NULL,Text,prime,Print,NA,1743113711531,ID,A,nonword,f,unrelated,light,WORBLE,NULL
1743113738,6f04fad9571c4b100f16be0d73cdc1ae,PennController,15,0,test,NULL,Timer,primeTimer,Start,Start,1743113711531,ID,A,nonword,f,unrelated,light,WORBLE,NULL
1743113738,6f04fad9571c4b100f16be0d73cdc1ae,PennController,15,0,test,NULL,Timer,primeTimer,End,End,1743113711576,ID,A,nonword,f,unrelated,light,WORBLE,NULL
1743113738,6f04fad9571c4b100f16be0d73cdc1ae,PennController,15,0,test,NULL,Text,mask2,Print,NA,1743113711577,ID,A,nonword,f,unrelated,light,WORBLE,NULL
1743113738,6f04fad9571c4b100f16be0d73cdc1ae,PennController,15,0,test,NULL,Timer,maskTimer2,Start,Start,1743113711578,ID,A,nonword,f,unrelated,light,WORBLE,NULL
1743113738,6f04fad9571c4b100f16be0d73cdc1ae,PennController,15,0,test,NULL,Timer,maskTimer2,End,End,1743113711678,ID,A,nonword,f,unrelated,light,WORBLE,NULL
1743113738,6f04fad9571c4b100f16be0d73cdc1ae,PennController,15,0,test,NULL,Text,target,Print,NA,1743113711680,ID,A,nonword,f,unrelated,light,WORBLE,NULL
1743113738,6f04fad9571c4b100f16be0d73cdc1ae,PennController,15,0,test,NULL,Key,answerTarget,PressedKey,J,1743113712567,ID,A,nonword,f,unrelated,light,WORBLE,Wait success
1743113738,6f04fad9571c4b100f16be0d73cdc1ae,PennController,15,0,test,NULL,PennController,16,_Trial_,End,1743113712568,ID,A,nonword,f,unrelated,light,WORBLE,NULL
1743113738,6f04fad9571c4b100f16be0d73cdc1ae,PennController,17,0,test,NULL,PennController,18,_Trial_,Start,1743113712572,ID,A,nonword,f,unrelated,phone,PLORB,NULL
1743113738,6f04fad9571c4b100f16be0d73cdc1ae,PennController,17,0,test,NULL,PennController,18,_Header_,Start,1743113712572,ID,A,nonword,f,unrelated,phone,PLORB,NULL
1743113738,6f04fad9571c4b100f16be0d73cdc1ae,PennController,17,0,test,NULL,PennController,18,_Header_,End,1743113712573,ID,A,nonword,f,unrelated,phone,PLORB,NULL
1743113738,6f04fad9571c4b100f16be0d73cdc1ae,PennController,17,0,test,NULL,Text,mask1,Print,NA,1743113712574,ID,A,nonword,f,unrelated,phone,PLORB,NULL
1743113738,6f04fad9571c4b100f16be0d73cdc1ae,PennController,17,0,test,NULL,Timer,maskTimer1,Start,Start,1743113712575,ID,A,nonword,f,unrelated,phone,PLORB,NULL
1743113738,6f04fad9571c4b100f16be0d73cdc1ae,PennController,17,0,test,NULL,Timer,maskTimer1,End,End,1743113713076,ID,A,nonword,f,unrelated,phone,PLORB,NULL
1743113738,6f04fad9571c4b100f16be0d73cdc1ae,PennController,17,0,test,NULL,Text,prime,Print,NA,1743113713078,ID,A,nonword,f,unrelated,phone,PLORB,NULL
1743113738,6f04fad9571c4b100f16be0d73cdc1ae,PennController,17,0,test,NULL,Timer,primeTimer,Start,Start,1743113713078,ID,A,nonword,f,unrelated,phone,PLORB,NULL
1743113738,6f04fad9571c4b100f16be0d73cdc1ae,PennController,17,0,test,NULL,Timer,primeTimer,End,End,1743113713122,ID,A,nonword,f,unrelated,phone,PLORB,NULL
1743113738,6f04fad9571c4b100f16be0d73cdc1ae,PennController,17,0,test,NULL,Text,mask2,Print,NA,1743113713124,ID,A,nonword,f,unrelated,phone,PLORB,NULL
1743113738,6f04fad9571c4b100f16be0d73cdc1ae,PennController,17,0,test,NULL,Timer,maskTimer2,Start,Start,1743113713124,ID,A,nonword,f,unrelated,phone,PLORB,NULL
1743113738,6f04fad9571c4b100f16be0d73cdc1ae,PennController,17,0,test,NULL,Timer,maskTimer2,End,End,1743113713228,ID,A,nonword,f,unrelated,phone,PLORB,NULL
1743113738,6f04fad9571c4b100f16be0d73cdc1ae,PennController,17,0,test,NULL,Text,target,Print,NA,1743113713230,ID,A,nonword,f,unrelated,phone,PLORB,NULL
1743113738,6f04fad9571c4b100f16be0d73cdc1ae,PennController,17,0,test,NULL,Key,answerTarget,PressedKey,J,1743113713949,ID,A,nonword,f,unrelated,phone,PLORB,Wait success
1743113738,6f04fad9571c4b100f16be0d73cdc1ae,PennController,17,0,test,NULL,PennController,18,_Trial_,End,1743113713950,ID,A,nonword,f,unrelated,phone,PLORB,NULL
1743113738,6f04fad9571c4b100f16be0d73cdc1ae,PennController,2,0,test,NULL,PennController,3,_Trial_,Start,1743113713952,ID,A,word,j,related,career,SUCCESS,NULL
1743113738,6f04fad9571c4b100f16be0d73cdc1ae,PennController,2,0,test,NULL,PennController,3,_Header_,Start,1743113713952,ID,A,word,j,related,career,SUCCESS,NULL
1743113738,6f04fad9571c4b100f16be0d73cdc1ae,PennController,2,0,test,NULL,PennController,3,_Header_,End,1743113713953,ID,A,word,j,related,career,SUCCESS,NULL
1743113738,6f04fad9571c4b100f16be0d73cdc1ae,PennController,2,0,test,NULL,Text,mask1,Print,NA,1743113713953,ID,A,word,j,related,career,SUCCESS,NULL
1743113738,6f04fad9571c4b100f16be0d73cdc1ae,PennController,2,0,test,NULL,Timer,maskTimer1,Start,Start,1743113713954,ID,A,word,j,related,career,SUCCESS,NULL
1743113738,6f04fad9571c4b100f16be0d73cdc1ae,PennController,2,0,test,NULL,Timer,maskTimer1,End,End,1743113714455,ID,A,word,j,related,career,SUCCESS,NULL
1743113738,6f04fad9571c4b100f16be0d73cdc1ae,PennController,2,0,test,NULL,Text,prime,Print,NA,1743113714457,ID,A,word,j,related,career,SUCCESS,NULL
1743113738,6f04fad9571c4b100f16be0d73cdc1ae,PennController,2,0,test,NULL,Timer,primeTimer,Start,Start,1743113714457,ID,A,word,j,related,career,SUCCESS,NULL
1743113738,6f04fad9571c4b100f16be0d73cdc1ae,PennController,2,0,test,NULL,Timer,primeTimer,End,End,1743113714502,ID,A,word,j,related,career,SUCCESS,NULL
1743113738,6f04fad9571c4b100f16be0d73cdc1ae,PennController,2,0,test,NULL,Text,mask2,Print,NA,1743113714503,ID,A,word,j,related,career,SUCCESS,NULL
1743113738,6f04fad9571c4b100f16be0d73cdc1ae,PennController,2,0,test,NULL,Timer,maskTimer2,Start,Start,1743113714504,ID,A,word,j,related,career,SUCCESS,NULL
1743113738,6f04fad9571c4b100f16be0d73cdc1ae,PennController,2,0,test,NULL,Text,target,Print,NA,1743113714607,ID,A,word,j,related,career,SUCCESS,NULL
1743113738,6f04fad9571c4b100f16be0d73cdc1ae,PennController,2,0,test,NULL,Timer,maskTimer2,End,End,1743113714607,ID,A,word,j,related,career,SUCCESS,NULL
1743113738,6f04fad9571c4b100f16be0d73cdc1ae,PennController,2,0,test,NULL,Key,answerTarget,PressedKey,F,1743113715242,ID,A,word,j,related,career,SUCCESS,Wait success
1743113738,6f04fad9571c4b100f16be0d73cdc1ae,PennController,2,0,test,NULL,PennController,3,_Trial_,End,1743113715243,ID,A,word,j,related,career,SUCCESS,NULL
1743113738,6f04fad9571c4b100f16be0d73cdc1ae,PennController,16,0,test,NULL,PennController,17,_Trial_,Start,1743113715245,ID,A,nonword,f,unrelated,plant,SCRANT,NULL
1743113738,6f04fad9571c4b100f16be0d73cdc1ae,PennController,16,0,test,NULL,PennController,17,_Header_,Start,1743113715245,ID,A,nonword,f,unrelated,plant,SCRANT,NULL
1743113738,6f04fad9571c4b100f16be0d73cdc1ae,PennController,16,0,test,NULL,PennController,17,_Header_,End,1743113715246,ID,A,nonword,f,unrelated,plant,SCRANT,NULL
1743113738,6f04fad9571c4b100f16be0d73cdc1ae,PennController,16,0,test,NULL,Text,mask1,Print,NA,1743113715248,ID,A,nonword,f,unrelated,plant,SCRANT,NULL
1743113738,6f04fad9571c4b100f16be0d73cdc1ae,PennController,16,0,test,NULL,Timer,maskTimer1,Start,Start,1743113715248,ID,A,nonword,f,unrelated,plant,SCRANT,NULL
1743113738,6f04fad9571c4b100f16be0d73cdc1ae,PennController,16,0,test,NULL,Timer,maskTimer1,End,End,1743113715750,ID,A,nonword,f,unrelated,plant,SCRANT,NULL
1743113738,6f04fad9571c4b100f16be0d73cdc1ae,PennController,16,0,test,NULL,Text,prime,Print,NA,1743113715752,ID,A,nonword,f,unrelated,plant,SCRANT,NULL
1743113738,6f04fad9571c4b100f16be0d73cdc1ae,PennController,16,0,test,NULL,Timer,primeTimer,Start,Start,1743113715752,ID,A,nonword,f,unrelated,plant,SCRANT,NULL
1743113738,6f04fad9571c4b100f16be0d73cdc1ae,PennController,16,0,test,NULL,Timer,primeTimer,End,End,1743113715796,ID,A,nonword,f,unrelated,plant,SCRANT,NULL
1743113738,6f04fad9571c4b100f16be0d73cdc1ae,PennController,16,0,test,NULL,Text,mask2,Print,NA,1743113715797,ID,A,nonword,f,unrelated,plant,SCRANT,NULL
1743113738,6f04fad9571c4b100f16be0d73cdc1ae,PennController,16,0,test,NULL,Timer,maskTimer2,Start,Start,1743113715798,ID,A,nonword,f,unrelated,plant,SCRANT,NULL
1743113738,6f04fad9571c4b100f16be0d73cdc1ae,PennController,16,0,test,NULL,Timer,maskTimer2,End,End,1743113715900,ID,A,nonword,f,unrelated,plant,SCRANT,NULL
1743113738,6f04fad9571c4b100f16be0d73cdc1ae,PennController,16,0,test,NULL,Text,target,Print,NA,1743113715902,ID,A,nonword,f,unrelated,plant,SCRANT,NULL
1743113738,6f04fad9571c4b100f16be0d73cdc1ae,PennController,16,0,test,NULL,Key,answerTarget,PressedKey,J,1743113716660,ID,A,nonword,f,unrelated,plant,SCRANT,Wait success
1743113738,6f04fad9571c4b100f16be0d73cdc1ae,PennController,16,0,test,NULL,PennController,17,_Trial_,End,1743113716661,ID,A,nonword,f,unrelated,plant,SCRANT,NULL
1743113738,6f04fad9571c4b100f16be0d73cdc1ae,PennController,9,0,test,NULL,PennController,10,_Trial_,Start,1743113716663,ID,A,word,j,unrelated,cloud,SUPPORT,NULL
1743113738,6f04fad9571c4b100f16be0d73cdc1ae,PennController,9,0,test,NULL,PennController,10,_Header_,Start,1743113716663,ID,A,word,j,unrelated,cloud,SUPPORT,NULL
1743113738,6f04fad9571c4b100f16be0d73cdc1ae,PennController,9,0,test,NULL,PennController,10,_Header_,End,1743113716664,ID,A,word,j,unrelated,cloud,SUPPORT,NULL
1743113738,6f04fad9571c4b100f16be0d73cdc1ae,PennController,9,0,test,NULL,Text,mask1,Print,NA,1743113716665,ID,A,word,j,unrelated,cloud,SUPPORT,NULL
1743113738,6f04fad9571c4b100f16be0d73cdc1ae,PennController,9,0,test,NULL,Timer,maskTimer1,Start,Start,1743113716665,ID,A,word,j,unrelated,cloud,SUPPORT,NULL
1743113738,6f04fad9571c4b100f16be0d73cdc1ae,PennController,9,0,test,NULL,Timer,maskTimer1,End,End,1743113717169,ID,A,word,j,unrelated,cloud,SUPPORT,NULL
1743113738,6f04fad9571c4b100f16be0d73cdc1ae,PennController,9,0,test,NULL,Text,prime,Print,NA,1743113717170,ID,A,word,j,unrelated,cloud,SUPPORT,NULL
1743113738,6f04fad9571c4b100f16be0d73cdc1ae,PennController,9,0,test,NULL,Timer,primeTimer,Start,Start,1743113717170,ID,A,word,j,unrelated,cloud,SUPPORT,NULL
1743113738,6f04fad9571c4b100f16be0d73cdc1ae,PennController,9,0,test,NULL,Timer,primeTimer,End,End,1743113717214,ID,A,word,j,unrelated,cloud,SUPPORT,NULL
1743113738,6f04fad9571c4b100f16be0d73cdc1ae,PennController,9,0,test,NULL,Text,mask2,Print,NA,1743113717215,ID,A,word,j,unrelated,cloud,SUPPORT,NULL
1743113738,6f04fad9571c4b100f16be0d73cdc1ae,PennController,9,0,test,NULL,Timer,maskTimer2,Start,Start,1743113717215,ID,A,word,j,unrelated,cloud,SUPPORT,NULL
1743113738,6f04fad9571c4b100f16be0d73cdc1ae,PennController,9,0,test,NULL,Timer,maskTimer2,End,End,1743113717317,ID,A,word,j,unrelated,cloud,SUPPORT,NULL
1743113738,6f04fad9571c4b100f16be0d73cdc1ae,PennController,9,0,test,NULL,Text,target,Print,NA,1743113717318,ID,A,word,j,unrelated,cloud,SUPPORT,NULL
1743113738,6f04fad9571c4b100f16be0d73cdc1ae,PennController,9,0,test,NULL,Key,answerTarget,PressedKey,F,1743113717871,ID,A,word,j,unrelated,cloud,SUPPORT,Wait success
1743113738,6f04fad9571c4b100f16be0d73cdc1ae,PennController,9,0,test,NULL,PennController,10,_Trial_,End,1743113717873,ID,A,word,j,unrelated,cloud,SUPPORT,NULL
1743113738,6f04fad9571c4b100f16be0d73cdc1ae,PennController,10,0,test,NULL,PennController,11,_Trial_,Start,1743113717875,ID,A,word,j,unrelated,tree,JOYFUL,NULL
1743113738,6f04fad9571c4b100f16be0d73cdc1ae,PennController,10,0,test,NULL,PennController,11,_Header_,Start,1743113717875,ID,A,word,j,unrelated,tree,JOYFUL,NULL
1743113738,6f04fad9571c4b100f16be0d73cdc1ae,PennController,10,0,test,NULL,PennController,11,_Header_,End,1743113717876,ID,A,word,j,unrelated,tree,JOYFUL,NULL
1743113738,6f04fad9571c4b100f16be0d73cdc1ae,PennController,10,0,test,NULL,Text,mask1,Print,NA,1743113717878,ID,A,word,j,unrelated,tree,JOYFUL,NULL
1743113738,6f04fad9571c4b100f16be0d73cdc1ae,PennController,10,0,test,NULL,Timer,maskTimer1,Start,Start,1743113717878,ID,A,word,j,unrelated,tree,JOYFUL,NULL
1743113738,6f04fad9571c4b100f16be0d73cdc1ae,PennController,10,0,test,NULL,Timer,maskTimer1,End,End,1743113718382,ID,A,word,j,unrelated,tree,JOYFUL,NULL
1743113738,6f04fad9571c4b100f16be0d73cdc1ae,PennController,10,0,test,NULL,Text,prime,Print,NA,1743113718383,ID,A,word,j,unrelated,tree,JOYFUL,NULL
1743113738,6f04fad9571c4b100f16be0d73cdc1ae,PennController,10,0,test,NULL,Timer,primeTimer,Start,Start,1743113718383,ID,A,word,j,unrelated,tree,JOYFUL,NULL
1743113738,6f04fad9571c4b100f16be0d73cdc1ae,PennController,10,0,test,NULL,Timer,primeTimer,End,End,1743113718427,ID,A,word,j,unrelated,tree,JOYFUL,NULL
1743113738,6f04fad9571c4b100f16be0d73cdc1ae,PennController,10,0,test,NULL,Text,mask2,Print,NA,1743113718428,ID,A,word,j,unrelated,tree,JOYFUL,NULL
1743113738,6f04fad9571c4b100f16be0d73cdc1ae,PennController,10,0,test,NULL,Timer,maskTimer2,Start,Start,1743113718429,ID,A,word,j,unrelated,tree,JOYFUL,NULL
1743113738,6f04fad9571c4b100f16be0d73cdc1ae,PennController,10,0,test,NULL,Timer,maskTimer2,End,End,1743113718532,ID,A,word,j,unrelated,tree,JOYFUL,NULL
1743113738,6f04fad9571c4b100f16be0d73cdc1ae,PennController,10,0,test,NULL,Text,target,Print,NA,1743113718533,ID,A,word,j,unrelated,tree,JOYFUL,NULL
1743113738,6f04fad9571c4b100f16be0d73cdc1ae,PennController,10,0,test,NULL,Key,answerTarget,PressedKey,F,1743113719203,ID,A,word,j,unrelated,tree,JOYFUL,Wait success
1743113738,6f04fad9571c4b100f16be0d73cdc1ae,PennController,10,0,test,NULL,PennController,11,_Trial_,End,1743113719204,ID,A,word,j,unrelated,tree,JOYFUL,NULL
1743113738,6f04fad9571c4b100f16be0d73cdc1ae,PennController,20,0,test,NULL,PennController,21,_Trial_,Start,1743113719205,ID,A,nonword,f,unrelated,clock,HELTH,NULL
1743113738,6f04fad9571c4b100f16be0d73cdc1ae,PennController,20,0,test,NULL,PennController,21,_Header_,Start,1743113719205,ID,A,nonword,f,unrelated,clock,HELTH,NULL
1743113738,6f04fad9571c4b100f16be0d73cdc1ae,PennController,20,0,test,NULL,PennController,21,_Header_,End,1743113719206,ID,A,nonword,f,unrelated,clock,HELTH,NULL
1743113738,6f04fad9571c4b100f16be0d73cdc1ae,PennController,20,0,test,NULL,Text,mask1,Print,NA,1743113719207,ID,A,nonword,f,unrelated,clock,HELTH,NULL
1743113738,6f04fad9571c4b100f16be0d73cdc1ae,PennController,20,0,test,NULL,Timer,maskTimer1,Start,Start,1743113719207,ID,A,nonword,f,unrelated,clock,HELTH,NULL
1743113738,6f04fad9571c4b100f16be0d73cdc1ae,PennController,20,0,test,NULL,Timer,maskTimer1,End,End,1743113719707,ID,A,nonword,f,unrelated,clock,HELTH,NULL
1743113738,6f04fad9571c4b100f16be0d73cdc1ae,PennController,20,0,test,NULL,Text,prime,Print,NA,1743113719709,ID,A,nonword,f,unrelated,clock,HELTH,NULL
1743113738,6f04fad9571c4b100f16be0d73cdc1ae,PennController,20,0,test,NULL,Timer,primeTimer,Start,Start,1743113719709,ID,A,nonword,f,unrelated,clock,HELTH,NULL
1743113738,6f04fad9571c4b100f16be0d73cdc1ae,PennController,20,0,test,NULL,Timer,primeTimer,End,End,1743113719753,ID,A,nonword,f,unrelated,clock,HELTH,NULL
1743113738,6f04fad9571c4b100f16be0d73cdc1ae,PennController,20,0,test,NULL,Text,mask2,Print,NA,1743113719755,ID,A,nonword,f,unrelated,clock,HELTH,NULL
1743113738,6f04fad9571c4b100f16be0d73cdc1ae,PennController,20,0,test,NULL,Timer,maskTimer2,Start,Start,1743113719756,ID,A,nonword,f,unrelated,clock,HELTH,NULL
1743113738,6f04fad9571c4b100f16be0d73cdc1ae,PennController,20,0,test,NULL,Timer,maskTimer2,End,End,1743113719857,ID,A,nonword,f,unrelated,clock,HELTH,NULL
1743113738,6f04fad9571c4b100f16be0d73cdc1ae,PennController,20,0,test,NULL,Text,target,Print,NA,1743113719859,ID,A,nonword,f,unrelated,clock,HELTH,NULL
1743113738,6f04fad9571c4b100f16be0d73cdc1ae,PennController,20,0,test,NULL,Key,answerTarget,PressedKey,J,1743113720605,ID,A,nonword,f,unrelated,clock,HELTH,Wait success
1743113738,6f04fad9571c4b100f16be0d73cdc1ae,PennController,20,0,test,NULL,PennController,21,_Trial_,End,1743113720606,ID,A,nonword,f,unrelated,clock,HELTH,NULL
1743113738,6f04fad9571c4b100f16be0d73cdc1ae,PennController,13,0,test,NULL,PennController,14,_Trial_,Start,1743113720608,ID,A,word,j,unrelated,music,SOLVE,NULL
1743113738,6f04fad9571c4b100f16be0d73cdc1ae,PennController,13,0,test,NULL,PennController,14,_Header_,Start,1743113720608,ID,A,word,j,unrelated,music,SOLVE,NULL
1743113738,6f04fad9571c4b100f16be0d73cdc1ae,PennController,13,0,test,NULL,PennController,14,_Header_,End,1743113720608,ID,A,word,j,unrelated,music,SOLVE,NULL
1743113738,6f04fad9571c4b100f16be0d73cdc1ae,PennController,13,0,test,NULL,Text,mask1,Print,NA,1743113720610,ID,A,word,j,unrelated,music,SOLVE,NULL
1743113738,6f04fad9571c4b100f16be0d73cdc1ae,PennController,13,0,test,NULL,Timer,maskTimer1,Start,Start,1743113720610,ID,A,word,j,unrelated,music,SOLVE,NULL
1743113738,6f04fad9571c4b100f16be0d73cdc1ae,PennController,13,0,test,NULL,Timer,maskTimer1,End,End,1743113721110,ID,A,word,j,unrelated,music,SOLVE,NULL
1743113738,6f04fad9571c4b100f16be0d73cdc1ae,PennController,13,0,test,NULL,Text,prime,Print,NA,1743113721112,ID,A,word,j,unrelated,music,SOLVE,NULL
1743113738,6f04fad9571c4b100f16be0d73cdc1ae,PennController,13,0,test,NULL,Timer,primeTimer,Start,Start,1743113721112,ID,A,word,j,unrelated,music,SOLVE,NULL
1743113738,6f04fad9571c4b100f16be0d73cdc1ae,PennController,13,0,test,NULL,Timer,primeTimer,End,End,1743113721156,ID,A,word,j,unrelated,music,SOLVE,NULL
1743113738,6f04fad9571c4b100f16be0d73cdc1ae,PennController,13,0,test,NULL,Text,mask2,Print,NA,1743113721157,ID,A,word,j,unrelated,music,SOLVE,NULL
1743113738,6f04fad9571c4b100f16be0d73cdc1ae,PennController,13,0,test,NULL,Timer,maskTimer2,Start,Start,1743113721158,ID,A,word,j,unrelated,music,SOLVE,NULL
1743113738,6f04fad9571c4b100f16be0d73cdc1ae,PennController,13,0,test,NULL,Timer,maskTimer2,End,End,1743113721261,ID,A,word,j,unrelated,music,SOLVE,NULL
1743113738,6f04fad9571c4b100f16be0d73cdc1ae,PennController,13,0,test,NULL,Text,target,Print,NA,1743113721262,ID,A,word,j,unrelated,music,SOLVE,NULL
1743113738,6f04fad9571c4b100f16be0d73cdc1ae,PennController,13,0,test,NULL,Key,answerTarget,PressedKey,F,1743113721995,ID,A,word,j,unrelated,music,SOLVE,Wait success
1743113738,6f04fad9571c4b100f16be0d73cdc1ae,PennController,13,0,test,NULL,PennController,14,_Trial_,End,1743113721996,ID,A,word,j,unrelated,music,SOLVE,NULL
1743113738,6f04fad9571c4b100f16be0d73cdc1ae,PennController,14,0,test,NULL,PennController,15,_Trial_,Start,1743113721998,ID,A,nonword,f,unrelated,chair,FLIGGLE,NULL
1743113738,6f04fad9571c4b100f16be0d73cdc1ae,PennController,14,0,test,NULL,PennController,15,_Header_,Start,1743113721998,ID,A,nonword,f,unrelated,chair,FLIGGLE,NULL
1743113738,6f04fad9571c4b100f16be0d73cdc1ae,PennController,14,0,test,NULL,PennController,15,_Header_,End,1743113721998,ID,A,nonword,f,unrelated,chair,FLIGGLE,NULL
1743113738,6f04fad9571c4b100f16be0d73cdc1ae,PennController,14,0,test,NULL,Text,mask1,Print,NA,1743113722000,ID,A,nonword,f,unrelated,chair,FLIGGLE,NULL
1743113738,6f04fad9571c4b100f16be0d73cdc1ae,PennController,14,0,test,NULL,Timer,maskTimer1,Start,Start,1743113722000,ID,A,nonword,f,unrelated,chair,FLIGGLE,NULL
1743113738,6f04fad9571c4b100f16be0d73cdc1ae,PennController,14,0,test,NULL,Timer,maskTimer1,End,End,1743113722504,ID,A,nonword,f,unrelated,chair,FLIGGLE,NULL
1743113738,6f04fad9571c4b100f16be0d73cdc1ae,PennController,14,0,test,NULL,Text,prime,Print,NA,1743113722505,ID,A,nonword,f,unrelated,chair,FLIGGLE,NULL
1743113738,6f04fad9571c4b100f16be0d73cdc1ae,PennController,14,0,test,NULL,Timer,primeTimer,Start,Start,1743113722506,ID,A,nonword,f,unrelated,chair,FLIGGLE,NULL
1743113738,6f04fad9571c4b100f16be0d73cdc1ae,PennController,14,0,test,NULL,Timer,primeTimer,End,End,1743113722549,ID,A,nonword,f,unrelated,chair,FLIGGLE,NULL
1743113738,6f04fad9571c4b100f16be0d73cdc1ae,PennController,14,0,test,NULL,Text,mask2,Print,NA,1743113722551,ID,A,nonword,f,unrelated,chair,FLIGGLE,NULL
1743113738,6f04fad9571c4b100f16be0d73cdc1ae,PennController,14,0,test,NULL,Timer,maskTimer2,Start,Start,1743113722552,ID,A,nonword,f,unrelated,chair,FLIGGLE,NULL
1743113738,6f04fad9571c4b100f16be0d73cdc1ae,PennController,14,0,test,NULL,Timer,maskTimer2,End,End,1743113722656,ID,A,nonword,f,unrelated,chair,FLIGGLE,NULL
1743113738,6f04fad9571c4b100f16be0d73cdc1ae,PennController,14,0,test,NULL,Text,target,Print,NA,1743113722658,ID,A,nonword,f,unrelated,chair,FLIGGLE,NULL
1743113738,6f04fad9571c4b100f16be0d73cdc1ae,PennController,14,0,test,NULL,Key,answerTarget,PressedKey,J,1743113723327,ID,A,nonword,f,unrelated,chair,FLIGGLE,Wait success
1743113738,6f04fad9571c4b100f16be0d73cdc1ae,PennController,14,0,test,NULL,PennController,15,_Trial_,End,1743113723328,ID,A,nonword,f,unrelated,chair,FLIGGLE,NULL
1743113738,6f04fad9571c4b100f16be0d73cdc1ae,PennController,5,0,test,NULL,PennController,6,_Trial_,Start,1743113723330,ID,A,word,j,related,travel,VACATION,NULL
1743113738,6f04fad9571c4b100f16be0d73cdc1ae,PennController,5,0,test,NULL,PennController,6,_Header_,Start,1743113723330,ID,A,word,j,related,travel,VACATION,NULL
1743113738,6f04fad9571c4b100f16be0d73cdc1ae,PennController,5,0,test,NULL,PennController,6,_Header_,End,1743113723331,ID,A,word,j,related,travel,VACATION,NULL
1743113738,6f04fad9571c4b100f16be0d73cdc1ae,PennController,5,0,test,NULL,Text,mask1,Print,NA,1743113723332,ID,A,word,j,related,travel,VACATION,NULL
1743113738,6f04fad9571c4b100f16be0d73cdc1ae,PennController,5,0,test,NULL,Timer,maskTimer1,Start,Start,1743113723332,ID,A,word,j,related,travel,VACATION,NULL
1743113738,6f04fad9571c4b100f16be0d73cdc1ae,PennController,5,0,test,NULL,Timer,maskTimer1,End,End,1743113723836,ID,A,word,j,related,travel,VACATION,NULL
1743113738,6f04fad9571c4b100f16be0d73cdc1ae,PennController,5,0,test,NULL,Text,prime,Print,NA,1743113723838,ID,A,word,j,related,travel,VACATION,NULL
1743113738,6f04fad9571c4b100f16be0d73cdc1ae,PennController,5,0,test,NULL,Timer,primeTimer,Start,Start,1743113723838,ID,A,word,j,related,travel,VACATION,NULL
1743113738,6f04fad9571c4b100f16be0d73cdc1ae,PennController,5,0,test,NULL,Timer,primeTimer,End,End,1743113723881,ID,A,word,j,related,travel,VACATION,NULL
1743113738,6f04fad9571c4b100f16be0d73cdc1ae,PennController,5,0,test,NULL,Text,mask2,Print,NA,1743113723882,ID,A,word,j,related,travel,VACATION,NULL
1743113738,6f04fad9571c4b100f16be0d73cdc1ae,PennController,5,0,test,NULL,Timer,maskTimer2,Start,Start,1743113723882,ID,A,word,j,related,travel,VACATION,NULL
1743113738,6f04fad9571c4b100f16be0d73cdc1ae,PennController,5,0,test,NULL,Timer,maskTimer2,End,End,1743113723983,ID,A,word,j,related,travel,VACATION,NULL
1743113738,6f04fad9571c4b100f16be0d73cdc1ae,PennController,5,0,test,NULL,Text,target,Print,NA,1743113723984,ID,A,word,j,related,travel,VACATION,NULL
1743113738,6f04fad9571c4b100f16be0d73cdc1ae,PennController,5,0,test,NULL,Key,answerTarget,PressedKey,F,1743113724952,ID,A,word,j,related,travel,VACATION,Wait success
1743113738,6f04fad9571c4b100f16be0d73cdc1ae,PennController,5,0,test,NULL,PennController,6,_Trial_,End,1743113724953,ID,A,word,j,related,travel,VACATION,NULL
1743113738,6f04fad9571c4b100f16be0d73cdc1ae,PennController,21,0,test,NULL,PennController,22,_Trial_,Start,1743113724955,ID,A,nonword,f,unrelated,picture,HAPY,NULL
1743113738,6f04fad9571c4b100f16be0d73cdc1ae,PennController,21,0,test,NULL,PennController,22,_Header_,Start,1743113724955,ID,A,nonword,f,unrelated,picture,HAPY,NULL
1743113738,6f04fad9571c4b100f16be0d73cdc1ae,PennController,21,0,test,NULL,PennController,22,_Header_,End,1743113724956,ID,A,nonword,f,unrelated,picture,HAPY,NULL
1743113738,6f04fad9571c4b100f16be0d73cdc1ae,PennController,21,0,test,NULL,Text,mask1,Print,NA,1743113724958,ID,A,nonword,f,unrelated,picture,HAPY,NULL
1743113738,6f04fad9571c4b100f16be0d73cdc1ae,PennController,21,0,test,NULL,Timer,maskTimer1,Start,Start,1743113724958,ID,A,nonword,f,unrelated,picture,HAPY,NULL
1743113738,6f04fad9571c4b100f16be0d73cdc1ae,PennController,21,0,test,NULL,Timer,maskTimer1,End,End,1743113725462,ID,A,nonword,f,unrelated,picture,HAPY,NULL
1743113738,6f04fad9571c4b100f16be0d73cdc1ae,PennController,21,0,test,NULL,Text,prime,Print,NA,1743113725464,ID,A,nonword,f,unrelated,picture,HAPY,NULL
1743113738,6f04fad9571c4b100f16be0d73cdc1ae,PennController,21,0,test,NULL,Timer,primeTimer,Start,Start,1743113725465,ID,A,nonword,f,unrelated,picture,HAPY,NULL
1743113738,6f04fad9571c4b100f16be0d73cdc1ae,PennController,21,0,test,NULL,Timer,primeTimer,End,End,1743113725507,ID,A,nonword,f,unrelated,picture,HAPY,NULL
1743113738,6f04fad9571c4b100f16be0d73cdc1ae,PennController,21,0,test,NULL,Text,mask2,Print,NA,1743113725509,ID,A,nonword,f,unrelated,picture,HAPY,NULL
1743113738,6f04fad9571c4b100f16be0d73cdc1ae,PennController,21,0,test,NULL,Timer,maskTimer2,Start,Start,1743113725511,ID,A,nonword,f,unrelated,picture,HAPY,NULL
1743113738,6f04fad9571c4b100f16be0d73cdc1ae,PennController,21,0,test,NULL,Timer,maskTimer2,End,End,1743113725611,ID,A,nonword,f,unrelated,picture,HAPY,NULL
1743113738,6f04fad9571c4b100f16be0d73cdc1ae,PennController,21,0,test,NULL,Text,target,Print,NA,1743113725613,ID,A,nonword,f,unrelated,picture,HAPY,NULL
1743113738,6f04fad9571c4b100f16be0d73cdc1ae,PennController,21,0,test,NULL,Key,answerTarget,PressedKey,J,1743113726368,ID,A,nonword,f,unrelated,picture,HAPY,Wait success
1743113738,6f04fad9571c4b100f16be0d73cdc1ae,PennController,21,0,test,NULL,PennController,22,_Trial_,End,1743113726369,ID,A,nonword,f,unrelated,picture,HAPY,NULL
1743113738,6f04fad9571c4b100f16be0d73cdc1ae,PennController,6,0,test,NULL,PennController,7,_Trial_,Start,1743113726371,ID,A,word,j,related,home,COMFORT,NULL
1743113738,6f04fad9571c4b100f16be0d73cdc1ae,PennController,6,0,test,NULL,PennController,7,_Header_,Start,1743113726371,ID,A,word,j,related,home,COMFORT,NULL
1743113738,6f04fad9571c4b100f16be0d73cdc1ae,PennController,6,0,test,NULL,PennController,7,_Header_,End,1743113726371,ID,A,word,j,related,home,COMFORT,NULL
1743113738,6f04fad9571c4b100f16be0d73cdc1ae,PennController,6,0,test,NULL,Text,mask1,Print,NA,1743113726372,ID,A,word,j,related,home,COMFORT,NULL
1743113738,6f04fad9571c4b100f16be0d73cdc1ae,PennController,6,0,test,NULL,Timer,maskTimer1,Start,Start,1743113726373,ID,A,word,j,related,home,COMFORT,NULL
1743113738,6f04fad9571c4b100f16be0d73cdc1ae,PennController,6,0,test,NULL,Timer,maskTimer1,End,End,1743113726876,ID,A,word,j,related,home,COMFORT,NULL
1743113738,6f04fad9571c4b100f16be0d73cdc1ae,PennController,6,0,test,NULL,Text,prime,Print,NA,1743113726878,ID,A,word,j,related,home,COMFORT,NULL
1743113738,6f04fad9571c4b100f16be0d73cdc1ae,PennController,6,0,test,NULL,Timer,primeTimer,Start,Start,1743113726879,ID,A,word,j,related,home,COMFORT,NULL
1743113738,6f04fad9571c4b100f16be0d73cdc1ae,PennController,6,0,test,NULL,Timer,primeTimer,End,End,1743113726922,ID,A,word,j,related,home,COMFORT,NULL
1743113738,6f04fad9571c4b100f16be0d73cdc1ae,PennController,6,0,test,NULL,Text,mask2,Print,NA,1743113726924,ID,A,word,j,related,home,COMFORT,NULL
1743113738,6f04fad9571c4b100f16be0d73cdc1ae,PennController,6,0,test,NULL,Timer,maskTimer2,Start,Start,1743113726925,ID,A,word,j,related,home,COMFORT,NULL
1743113738,6f04fad9571c4b100f16be0d73cdc1ae,PennController,6,0,test,NULL,Timer,maskTimer2,End,End,1743113727028,ID,A,word,j,related,home,COMFORT,NULL
1743113738,6f04fad9571c4b100f16be0d73cdc1ae,PennController,6,0,test,NULL,Text,target,Print,NA,1743113727031,ID,A,word,j,related,home,COMFORT,NULL
1743113738,6f04fad9571c4b100f16be0d73cdc1ae,PennController,6,0,test,NULL,Key,answerTarget,PressedKey,F,1743113727779,ID,A,word,j,related,home,COMFORT,Wait success
1743113738,6f04fad9571c4b100f16be0d73cdc1ae,PennController,6,0,test,NULL,PennController,7,_Trial_,End,1743113727780,ID,A,word,j,related,home,COMFORT,NULL
1743113738,6f04fad9571c4b100f16be0d73cdc1ae,PennController,18,0,test,NULL,PennController,19,_Trial_,Start,1743113727781,ID,A,nonword,f,unrelated,book,SUCCESH,NULL
1743113738,6f04fad9571c4b100f16be0d73cdc1ae,PennController,18,0,test,NULL,PennController,19,_Header_,Start,1743113727781,ID,A,nonword,f,unrelated,book,SUCCESH,NULL
1743113738,6f04fad9571c4b100f16be0d73cdc1ae,PennController,18,0,test,NULL,PennController,19,_Header_,End,1743113727782,ID,A,nonword,f,unrelated,book,SUCCESH,NULL
1743113738,6f04fad9571c4b100f16be0d73cdc1ae,PennController,18,0,test,NULL,Text,mask1,Print,NA,1743113727783,ID,A,nonword,f,unrelated,book,SUCCESH,NULL
1743113738,6f04fad9571c4b100f16be0d73cdc1ae,PennController,18,0,test,NULL,Timer,maskTimer1,Start,Start,1743113727783,ID,A,nonword,f,unrelated,book,SUCCESH,NULL
1743113738,6f04fad9571c4b100f16be0d73cdc1ae,PennController,18,0,test,NULL,Timer,maskTimer1,End,End,1743113728287,ID,A,nonword,f,unrelated,book,SUCCESH,NULL
1743113738,6f04fad9571c4b100f16be0d73cdc1ae,PennController,18,0,test,NULL,Text,prime,Print,NA,1743113728289,ID,A,nonword,f,unrelated,book,SUCCESH,NULL
1743113738,6f04fad9571c4b100f16be0d73cdc1ae,PennController,18,0,test,NULL,Timer,primeTimer,Start,Start,1743113728290,ID,A,nonword,f,unrelated,book,SUCCESH,NULL
1743113738,6f04fad9571c4b100f16be0d73cdc1ae,PennController,18,0,test,NULL,Timer,primeTimer,End,End,1743113728334,ID,A,nonword,f,unrelated,book,SUCCESH,NULL
1743113738,6f04fad9571c4b100f16be0d73cdc1ae,PennController,18,0,test,NULL,Text,mask2,Print,NA,1743113728336,ID,A,nonword,f,unrelated,book,SUCCESH,NULL
1743113738,6f04fad9571c4b100f16be0d73cdc1ae,PennController,18,0,test,NULL,Timer,maskTimer2,Start,Start,1743113728337,ID,A,nonword,f,unrelated,book,SUCCESH,NULL
1743113738,6f04fad9571c4b100f16be0d73cdc1ae,PennController,18,0,test,NULL,Timer,maskTimer2,End,End,1743113728439,ID,A,nonword,f,unrelated,book,SUCCESH,NULL
1743113738,6f04fad9571c4b100f16be0d73cdc1ae,PennController,18,0,test,NULL,Text,target,Print,NA,1743113728440,ID,A,nonword,f,unrelated,book,SUCCESH,NULL
1743113738,6f04fad9571c4b100f16be0d73cdc1ae,PennController,18,0,test,NULL,Key,answerTarget,PressedKey,J,1743113729409,ID,A,nonword,f,unrelated,book,SUCCESH,Wait success
1743113738,6f04fad9571c4b100f16be0d73cdc1ae,PennController,18,0,test,NULL,PennController,19,_Trial_,End,1743113729409,ID,A,nonword,f,unrelated,book,SUCCESH,NULL
1743113738,6f04fad9571c4b100f16be0d73cdc1ae,PennController,11,0,test,NULL,PennController,12,_Trial_,Start,1743113729410,ID,A,word,j,unrelated,water,DEGREE,NULL
1743113738,6f04fad9571c4b100f16be0d73cdc1ae,PennController,11,0,test,NULL,PennController,12,_Header_,Start,1743113729410,ID,A,word,j,unrelated,water,DEGREE,NULL
1743113738,6f04fad9571c4b100f16be0d73cdc1ae,PennController,11,0,test,NULL,PennController,12,_Header_,End,1743113729411,ID,A,word,j,unrelated,water,DEGREE,NULL
1743113738,6f04fad9571c4b100f16be0d73cdc1ae,PennController,11,0,test,NULL,Text,mask1,Print,NA,1743113729412,ID,A,word,j,unrelated,water,DEGREE,NULL
1743113738,6f04fad9571c4b100f16be0d73cdc1ae,PennController,11,0,test,NULL,Timer,maskTimer1,Start,Start,1743113729412,ID,A,word,j,unrelated,water,DEGREE,NULL
1743113738,6f04fad9571c4b100f16be0d73cdc1ae,PennController,11,0,test,NULL,Timer,maskTimer1,End,End,1743113729915,ID,A,word,j,unrelated,water,DEGREE,NULL
1743113738,6f04fad9571c4b100f16be0d73cdc1ae,PennController,11,0,test,NULL,Text,prime,Print,NA,1743113729917,ID,A,word,j,unrelated,water,DEGREE,NULL
1743113738,6f04fad9571c4b100f16be0d73cdc1ae,PennController,11,0,test,NULL,Timer,primeTimer,Start,Start,1743113729917,ID,A,word,j,unrelated,water,DEGREE,NULL
1743113738,6f04fad9571c4b100f16be0d73cdc1ae,PennController,11,0,test,NULL,Timer,primeTimer,End,End,1743113729961,ID,A,word,j,unrelated,water,DEGREE,NULL
1743113738,6f04fad9571c4b100f16be0d73cdc1ae,PennController,11,0,test,NULL,Text,mask2,Print,NA,1743113729963,ID,A,word,j,unrelated,water,DEGREE,NULL
1743113738,6f04fad9571c4b100f16be0d73cdc1ae,PennController,11,0,test,NULL,Timer,maskTimer2,Start,Start,1743113729964,ID,A,word,j,unrelated,water,DEGREE,NULL
1743113738,6f04fad9571c4b100f16be0d73cdc1ae,PennController,11,0,test,NULL,Timer,maskTimer2,End,End,1743113730064,ID,A,word,j,unrelated,water,DEGREE,NULL
1743113738,6f04fad9571c4b100f16be0d73cdc1ae,PennController,11,0,test,NULL,Text,target,Print,NA,1743113730066,ID,A,word,j,unrelated,water,DEGREE,NULL
1743113738,6f04fad9571c4b100f16be0d73cdc1ae,PennController,11,0,test,NULL,Key,answerTarget,PressedKey,F,1743113730728,ID,A,word,j,unrelated,water,DEGREE,Wait success
1743113738,6f04fad9571c4b100f16be0d73cdc1ae,PennController,11,0,test,NULL,PennController,12,_Trial_,End,1743113730729,ID,A,word,j,unrelated,water,DEGREE,NULL
1743113738,6f04fad9571c4b100f16be0d73cdc1ae,PennController,12,0,test,NULL,PennController,13,_Trial_,Start,1743113730731,ID,A,word,j,unrelated,glass,FUN,NULL
1743113738,6f04fad9571c4b100f16be0d73cdc1ae,PennController,12,0,test,NULL,PennController,13,_Header_,Start,1743113730731,ID,A,word,j,unrelated,glass,FUN,NULL
1743113738,6f04fad9571c4b100f16be0d73cdc1ae,PennController,12,0,test,NULL,PennController,13,_Header_,End,1743113730732,ID,A,word,j,unrelated,glass,FUN,NULL
1743113738,6f04fad9571c4b100f16be0d73cdc1ae,PennController,12,0,test,NULL,Text,mask1,Print,NA,1743113730734,ID,A,word,j,unrelated,glass,FUN,NULL
1743113738,6f04fad9571c4b100f16be0d73cdc1ae,PennController,12,0,test,NULL,Timer,maskTimer1,Start,Start,1743113730734,ID,A,word,j,unrelated,glass,FUN,NULL
1743113738,6f04fad9571c4b100f16be0d73cdc1ae,PennController,12,0,test,NULL,Timer,maskTimer1,End,End,1743113731237,ID,A,word,j,unrelated,glass,FUN,NULL
1743113738,6f04fad9571c4b100f16be0d73cdc1ae,PennController,12,0,test,NULL,Text,prime,Print,NA,1743113731239,ID,A,word,j,unrelated,glass,FUN,NULL
1743113738,6f04fad9571c4b100f16be0d73cdc1ae,PennController,12,0,test,NULL,Timer,primeTimer,Start,Start,1743113731240,ID,A,word,j,unrelated,glass,FUN,NULL
1743113738,6f04fad9571c4b100f16be0d73cdc1ae,PennController,12,0,test,NULL,Timer,primeTimer,End,End,1743113731282,ID,A,word,j,unrelated,glass,FUN,NULL
1743113738,6f04fad9571c4b100f16be0d73cdc1ae,PennController,12,0,test,NULL,Text,mask2,Print,NA,1743113731284,ID,A,word,j,unrelated,glass,FUN,NULL
1743113738,6f04fad9571c4b100f16be0d73cdc1ae,PennController,12,0,test,NULL,Timer,maskTimer2,Start,Start,1743113731285,ID,A,word,j,unrelated,glass,FUN,NULL
1743113738,6f04fad9571c4b100f16be0d73cdc1ae,PennController,12,0,test,NULL,Timer,maskTimer2,End,End,1743113731385,ID,A,word,j,unrelated,glass,FUN,NULL
1743113738,6f04fad9571c4b100f16be0d73cdc1ae,PennController,12,0,test,NULL,Text,target,Print,NA,1743113731387,ID,A,word,j,unrelated,glass,FUN,NULL
1743113738,6f04fad9571c4b100f16be0d73cdc1ae,PennController,12,0,test,NULL,Key,answerTarget,PressedKey,F,1743113731953,ID,A,word,j,unrelated,glass,FUN,Wait success
1743113738,6f04fad9571c4b100f16be0d73cdc1ae,PennController,12,0,test,NULL,PennController,13,_Trial_,End,1743113731954,ID,A,word,j,unrelated,glass,FUN,NULL
1743113738,6f04fad9571c4b100f16be0d73cdc1ae,PennController,7,0,test,NULL,PennController,8,_Trial_,Start,1743113731955,ID,A,word,j,related,stress,ANXIOUS,NULL
1743113738,6f04fad9571c4b100f16be0d73cdc1ae,PennController,7,0,test,NULL,PennController,8,_Header_,Start,1743113731955,ID,A,word,j,related,stress,ANXIOUS,NULL
1743113738,6f04fad9571c4b100f16be0d73cdc1ae,PennController,7,0,test,NULL,PennController,8,_Header_,End,1743113731956,ID,A,word,j,related,stress,ANXIOUS,NULL
1743113738,6f04fad9571c4b100f16be0d73cdc1ae,PennController,7,0,test,NULL,Text,mask1,Print,NA,1743113731958,ID,A,word,j,related,stress,ANXIOUS,NULL
1743113738,6f04fad9571c4b100f16be0d73cdc1ae,PennController,7,0,test,NULL,Timer,maskTimer1,Start,Start,1743113731958,ID,A,word,j,related,stress,ANXIOUS,NULL
1743113738,6f04fad9571c4b100f16be0d73cdc1ae,PennController,7,0,test,NULL,Timer,maskTimer1,End,End,1743113732459,ID,A,word,j,related,stress,ANXIOUS,NULL
1743113738,6f04fad9571c4b100f16be0d73cdc1ae,PennController,7,0,test,NULL,Text,prime,Print,NA,1743113732462,ID,A,word,j,related,stress,ANXIOUS,NULL
1743113738,6f04fad9571c4b100f16be0d73cdc1ae,PennController,7,0,test,NULL,Timer,primeTimer,Start,Start,1743113732463,ID,A,word,j,related,stress,ANXIOUS,NULL
1743113738,6f04fad9571c4b100f16be0d73cdc1ae,PennController,7,0,test,NULL,Timer,primeTimer,End,End,1743113732505,ID,A,word,j,related,stress,ANXIOUS,NULL
1743113738,6f04fad9571c4b100f16be0d73cdc1ae,PennController,7,0,test,NULL,Text,mask2,Print,NA,1743113732508,ID,A,word,j,related,stress,ANXIOUS,NULL
1743113738,6f04fad9571c4b100f16be0d73cdc1ae,PennController,7,0,test,NULL,Timer,maskTimer2,Start,Start,1743113732509,ID,A,word,j,related,stress,ANXIOUS,NULL
1743113738,6f04fad9571c4b100f16be0d73cdc1ae,PennController,7,0,test,NULL,Timer,maskTimer2,End,End,1743113732613,ID,A,word,j,related,stress,ANXIOUS,NULL
1743113738,6f04fad9571c4b100f16be0d73cdc1ae,PennController,7,0,test,NULL,Text,target,Print,NA,1743113732616,ID,A,word,j,related,stress,ANXIOUS,NULL
1743113738,6f04fad9571c4b100f16be0d73cdc1ae,PennController,7,0,test,NULL,Key,answerTarget,PressedKey,F,1743113733275,ID,A,word,j,related,stress,ANXIOUS,Wait success
1743113738,6f04fad9571c4b100f16be0d73cdc1ae,PennController,7,0,test,NULL,PennController,8,_Trial_,End,1743113733276,ID,A,word,j,related,stress,ANXIOUS,NULL
1743113738,6f04fad9571c4b100f16be0d73cdc1ae,PennController,3,0,test,NULL,PennController,4,_Trial_,Start,1743113733279,ID,A,word,j,related,family,LOVE,NULL
1743113738,6f04fad9571c4b100f16be0d73cdc1ae,PennController,3,0,test,NULL,PennController,4,_Header_,Start,1743113733279,ID,A,word,j,related,family,LOVE,NULL
1743113738,6f04fad9571c4b100f16be0d73cdc1ae,PennController,3,0,test,NULL,PennController,4,_Header_,End,1743113733280,ID,A,word,j,related,family,LOVE,NULL
1743113738,6f04fad9571c4b100f16be0d73cdc1ae,PennController,3,0,test,NULL,Text,mask1,Print,NA,1743113733282,ID,A,word,j,related,family,LOVE,NULL
1743113738,6f04fad9571c4b100f16be0d73cdc1ae,PennController,3,0,test,NULL,Timer,maskTimer1,Start,Start,1743113733283,ID,A,word,j,related,family,LOVE,NULL
1743113738,6f04fad9571c4b100f16be0d73cdc1ae,PennController,3,0,test,NULL,Timer,maskTimer1,End,End,1743113733786,ID,A,word,j,related,family,LOVE,NULL
1743113738,6f04fad9571c4b100f16be0d73cdc1ae,PennController,3,0,test,NULL,Text,prime,Print,NA,1743113733788,ID,A,word,j,related,family,LOVE,NULL
1743113738,6f04fad9571c4b100f16be0d73cdc1ae,PennController,3,0,test,NULL,Timer,primeTimer,Start,Start,1743113733789,ID,A,word,j,related,family,LOVE,NULL
1743113738,6f04fad9571c4b100f16be0d73cdc1ae,PennController,3,0,test,NULL,Timer,primeTimer,End,End,1743113733831,ID,A,word,j,related,family,LOVE,NULL
1743113738,6f04fad9571c4b100f16be0d73cdc1ae,PennController,3,0,test,NULL,Text,mask2,Print,NA,1743113733834,ID,A,word,j,related,family,LOVE,NULL
1743113738,6f04fad9571c4b100f16be0d73cdc1ae,PennController,3,0,test,NULL,Timer,maskTimer2,Start,Start,1743113733835,ID,A,word,j,related,family,LOVE,NULL
1743113738,6f04fad9571c4b100f16be0d73cdc1ae,PennController,3,0,test,NULL,Timer,maskTimer2,End,End,1743113733937,ID,A,word,j,related,family,LOVE,NULL
1743113738,6f04fad9571c4b100f16be0d73cdc1ae,PennController,3,0,test,NULL,Text,target,Print,NA,1743113733939,ID,A,word,j,related,family,LOVE,NULL
1743113738,6f04fad9571c4b100f16be0d73cdc1ae,PennController,3,0,test,NULL,Key,answerTarget,PressedKey,F,1743113734575,ID,A,word,j,related,family,LOVE,Wait success
1743113738,6f04fad9571c4b100f16be0d73cdc1ae,PennController,3,0,test,NULL,PennController,4,_Trial_,End,1743113734576,ID,A,word,j,related,family,LOVE,NULL
1743113738,6f04fad9571c4b100f16be0d73cdc1ae,PennController,8,0,test,NULL,PennController,9,_Trial_,Start,1743113734578,ID,A,word,j,unrelated,pencil,WEALTH,NULL
1743113738,6f04fad9571c4b100f16be0d73cdc1ae,PennController,8,0,test,NULL,PennController,9,_Header_,Start,1743113734578,ID,A,word,j,unrelated,pencil,WEALTH,NULL
1743113738,6f04fad9571c4b100f16be0d73cdc1ae,PennController,8,0,test,NULL,PennController,9,_Header_,End,1743113734579,ID,A,word,j,unrelated,pencil,WEALTH,NULL
1743113738,6f04fad9571c4b100f16be0d73cdc1ae,PennController,8,0,test,NULL,Text,mask1,Print,NA,1743113734581,ID,A,word,j,unrelated,pencil,WEALTH,NULL
1743113738,6f04fad9571c4b100f16be0d73cdc1ae,PennController,8,0,test,NULL,Timer,maskTimer1,Start,Start,1743113734581,ID,A,word,j,unrelated,pencil,WEALTH,NULL
1743113738,6f04fad9571c4b100f16be0d73cdc1ae,PennController,8,0,test,NULL,Timer,maskTimer1,End,End,1743113735081,ID,A,word,j,unrelated,pencil,WEALTH,NULL
1743113738,6f04fad9571c4b100f16be0d73cdc1ae,PennController,8,0,test,NULL,Text,prime,Print,NA,1743113735082,ID,A,word,j,unrelated,pencil,WEALTH,NULL
1743113738,6f04fad9571c4b100f16be0d73cdc1ae,PennController,8,0,test,NULL,Timer,primeTimer,Start,Start,1743113735083,ID,A,word,j,unrelated,pencil,WEALTH,NULL
1743113738,6f04fad9571c4b100f16be0d73cdc1ae,PennController,8,0,test,NULL,Timer,primeTimer,End,End,1743113735128,ID,A,word,j,unrelated,pencil,WEALTH,NULL
1743113738,6f04fad9571c4b100f16be0d73cdc1ae,PennController,8,0,test,NULL,Text,mask2,Print,NA,1743113735129,ID,A,word,j,unrelated,pencil,WEALTH,NULL
1743113738,6f04fad9571c4b100f16be0d73cdc1ae,PennController,8,0,test,NULL,Timer,maskTimer2,Start,Start,1743113735130,ID,A,word,j,unrelated,pencil,WEALTH,NULL
1743113738,6f04fad9571c4b100f16be0d73cdc1ae,PennController,8,0,test,NULL,Timer,maskTimer2,End,End,1743113735233,ID,A,word,j,unrelated,pencil,WEALTH,NULL
1743113738,6f04fad9571c4b100f16be0d73cdc1ae,PennController,8,0,test,NULL,Text,target,Print,NA,1743113735235,ID,A,word,j,unrelated,pencil,WEALTH,NULL
1743113738,6f04fad9571c4b100f16be0d73cdc1ae,PennController,8,0,test,NULL,Key,answerTarget,PressedKey,F,1743113735768,ID,A,word,j,unrelated,pencil,WEALTH,Wait success
1743113738,6f04fad9571c4b100f16be0d73cdc1ae,PennController,8,0,test,NULL,PennController,9,_Trial_,End,1743113735769,ID,A,word,j,unrelated,pencil,WEALTH,NULL
1743113738,6f04fad9571c4b100f16be0d73cdc1ae,PennController,19,0,test,NULL,PennController,20,_Trial_,Start,1743113735770,ID,A,nonword,f,unrelated,window,FAMBLY,NULL
1743113738,6f04fad9571c4b100f16be0d73cdc1ae,PennController,19,0,test,NULL,PennController,20,_Header_,Start,1743113735770,ID,A,nonword,f,unrelated,window,FAMBLY,NULL
1743113738,6f04fad9571c4b100f16be0d73cdc1ae,PennController,19,0,test,NULL,PennController,20,_Header_,End,1743113735771,ID,A,nonword,f,unrelated,window,FAMBLY,NULL
1743113738,6f04fad9571c4b100f16be0d73cdc1ae,PennController,19,0,test,NULL,Text,mask1,Print,NA,1743113735773,ID,A,nonword,f,unrelated,window,FAMBLY,NULL
1743113738,6f04fad9571c4b100f16be0d73cdc1ae,PennController,19,0,test,NULL,Timer,maskTimer1,Start,Start,1743113735773,ID,A,nonword,f,unrelated,window,FAMBLY,NULL
1743113738,6f04fad9571c4b100f16be0d73cdc1ae,PennController,19,0,test,NULL,Timer,maskTimer1,End,End,1743113736274,ID,A,nonword,f,unrelated,window,FAMBLY,NULL
1743113738,6f04fad9571c4b100f16be0d73cdc1ae,PennController,19,0,test,NULL,Text,prime,Print,NA,1743113736275,ID,A,nonword,f,unrelated,window,FAMBLY,NULL
1743113738,6f04fad9571c4b100f16be0d73cdc1ae,PennController,19,0,test,NULL,Timer,primeTimer,Start,Start,1743113736276,ID,A,nonword,f,unrelated,window,FAMBLY,NULL
1743113738,6f04fad9571c4b100f16be0d73cdc1ae,PennController,19,0,test,NULL,Timer,primeTimer,End,End,1743113736319,ID,A,nonword,f,unrelated,window,FAMBLY,NULL
1743113738,6f04fad9571c4b100f16be0d73cdc1ae,PennController,19,0,test,NULL,Text,mask2,Print,NA,1743113736321,ID,A,nonword,f,unrelated,window,FAMBLY,NULL
1743113738,6f04fad9571c4b100f16be0d73cdc1ae,PennController,19,0,test,NULL,Timer,maskTimer2,Start,Start,1743113736322,ID,A,nonword,f,unrelated,window,FAMBLY,NULL
1743113738,6f04fad9571c4b100f16be0d73cdc1ae,PennController,19,0,test,NULL,Timer,maskTimer2,End,End,1743113736425,ID,A,nonword,f,unrelated,window,FAMBLY,NULL
1743113738,6f04fad9571c4b100f16be0d73cdc1ae,PennController,19,0,test,NULL,Text,target,Print,NA,1743113736428,ID,A,nonword,f,unrelated,window,FAMBLY,NULL
1743113738,6f04fad9571c4b100f16be0d73cdc1ae,PennController,19,0,test,NULL,Key,answerTarget,PressedKey,J,1743113737221,ID,A,nonword,f,unrelated,window,FAMBLY,Wait success
1743113738,6f04fad9571c4b100f16be0d73cdc1ae,PennController,19,0,test,NULL,PennController,20,_Trial_,End,1743113737223,ID,A,nonword,f,unrelated,window,FAMBLY,NULL
1743113738,6f04fad9571c4b100f16be0d73cdc1ae,PennController,4,0,test,NULL,PennController,5,_Trial_,Start,1743113737226,ID,A,word,j,related,health,FITNESS,NULL
1743113738,6f04fad9571c4b100f16be0d73cdc1ae,PennController,4,0,test,NULL,PennController,5,_Header_,Start,1743113737226,ID,A,word,j,related,health,FITNESS,NULL
1743113738,6f04fad9571c4b100f16be0d73cdc1ae,PennController,4,0,test,NULL,PennController,5,_Header_,End,1743113737227,ID,A,word,j,related,health,FITNESS,NULL
1743113738,6f04fad9571c4b100f16be0d73cdc1ae,PennController,4,0,test,NULL,Text,mask1,Print,NA,1743113737229,ID,A,word,j,related,health,FITNESS,NULL
1743113738,6f04fad9571c4b100f16be0d73cdc1ae,PennController,4,0,test,NULL,Timer,maskTimer1,Start,Start,1743113737229,ID,A,word,j,related,health,FITNESS,NULL
1743113738,6f04fad9571c4b100f16be0d73cdc1ae,PennController,4,0,test,NULL,Timer,maskTimer1,End,End,1743113737731,ID,A,word,j,related,health,FITNESS,NULL
1743113738,6f04fad9571c4b100f16be0d73cdc1ae,PennController,4,0,test,NULL,Text,prime,Print,NA,1743113737734,ID,A,word,j,related,health,FITNESS,NULL
1743113738,6f04fad9571c4b100f16be0d73cdc1ae,PennController,4,0,test,NULL,Timer,primeTimer,Start,Start,1743113737735,ID,A,word,j,related,health,FITNESS,NULL
1743113738,6f04fad9571c4b100f16be0d73cdc1ae,PennController,4,0,test,NULL,Timer,primeTimer,End,End,1743113737780,ID,A,word,j,related,health,FITNESS,NULL
1743113738,6f04fad9571c4b100f16be0d73cdc1ae,PennController,4,0,test,NULL,Text,mask2,Print,NA,1743113737782,ID,A,word,j,related,health,FITNESS,NULL
1743113738,6f04fad9571c4b100f16be0d73cdc1ae,PennController,4,0,test,NULL,Timer,maskTimer2,Start,Start,1743113737783,ID,A,word,j,related,health,FITNESS,NULL
1743113738,6f04fad9571c4b100f16be0d73cdc1ae,PennController,4,0,test,NULL,Timer,maskTimer2,End,End,1743113737886,ID,A,word,j,related,health,FITNESS,NULL
1743113738,6f04fad9571c4b100f16be0d73cdc1ae,PennController,4,0,test,NULL,Text,target,Print,NA,1743113737888,ID,A,word,j,related,health,FITNESS,NULL
1743113738,6f04fad9571c4b100f16be0d73cdc1ae,PennController,4,0,test,NULL,Key,answerTarget,PressedKey,F,1743113738483,ID,A,word,j,related,health,FITNESS,Wait success
1743113738,6f04fad9571c4b100f16be0d73cdc1ae,PennController,4,0,test,NULL,PennController,5,_Trial_,End,1743113738485,ID,A,word,j,related,health,FITNESS,NULL
